ax,ay,az,gx,gy,gz
-2.5738,-1.1037,-10.1466,-0.0861,-0.0338,-0.0096
-2.6121,-1.1349,-10.1227,-0.1071,-0.0602,-0.0226
-2.5307,-1.1205,-10.0149,-0.11,-0.0802,-0.0314
-2.5642,-1.1037,-9.9311,-0.1108,-0.0893,-0.0389
-2.5618,-1.1372,-9.9551,-0.1066,-0.0935,-0.048
-2.5762,-1.0942,-9.9647,-0.1026,-0.0994,-0.061
-2.6815,-1.0822,-10.0413,-0.1082,-0.0933,-0.0789
-2.6839,-1.063,-10.0293,-0.1108,-0.0858,-0.0914
-2.5738,-1.0271,-10.1107,-0.1154,-0.0863,-0.0911
-2.399,-1.0511,-10.1059,-0.1127,-0.0797,-0.0874
-2.2721,-1.1516,-10.2376,-0.1164,-0.0909,-0.0861
-2.0949,-1.154,-10.307,-0.1132,-0.1276,-0.0898
-1.9776,-1.1779,-10.4244,-0.1231,-0.1612,-0.0933
-1.9848,-1.1708,-10.4914,-0.1218,-0.21,-0.097
-1.9776,-1.1827,-10.4531,-0.1226,-0.2486,-0.0935
-2.0087,-1.0846,-10.4531,-0.1186,-0.2745,-0.0901
-2.1883,-1.0151,-10.4842,-0.1023,-0.2798,-0.0842
-2.3583,-0.893,-10.4962,-0.0869,-0.2822,-0.0781
-2.4421,-0.8595,-10.4627,-0.0733,-0.2542,-0.0677
-2.4636,-0.8715,-10.4866,-0.0597,-0.2081,-0.057
-2.4804,-0.8835,-10.5034,-0.0581,-0.1569,-0.0485
-2.3894,-0.8763,-10.4267,-0.0549,-0.097,-0.0392
-2.308,-0.9002,-10.3693,-0.0434,-0.0506,-0.0269
-2.1739,-0.9026,-10.3645,-0.0378,-0.0192,-0.0179
-2.059,-0.9002,-10.3262,-0.0317,-0.0027,-0.0112
-1.9489,-0.8811,-10.3717,-0.0277,-0.012,-0.0136
-1.9058,-0.9649,-10.5034,-0.025,-0.0296,-0.02
-1.8986,-0.9768,-10.5105,-0.0203,-0.0565,-0.0285
-1.8723,-1.0367,-10.6255,-0.0221,-0.093,-0.0378
-1.8579,-1.0822,-10.5177,-0.0256,-0.1279,-0.0429
-1.8459,-1.0127,-10.4148,-0.0248,-0.1484,-0.0512
-1.889,-0.9984,-10.3932,-0.0266,-0.1652,-0.0584
-1.8627,-0.9361,-10.307,-0.0306,-0.1729,-0.0717
-1.9441,-0.929,-10.2328,-0.0336,-0.1703,-0.0802
-1.9872,-0.8882,-10.2615,-0.0309,-0.1713,-0.0903
-1.8938,-0.9266,-10.3094,-0.0466,-0.1697,-0.0957
-1.901,-0.8452,-10.2472,-0.0445,-0.1601,-0.1103
-1.9848,-0.8452,-10.149,-0.0378,-0.1615,-0.1231
-2.0542,-0.8356,-10.161,-0.0365,-0.166,-0.1239
-2.1069,-0.8739,-10.1778,-0.0272,-0.1612,-0.1202
-2.1979,-0.8763,-10.2711,-0.0179,-0.1407,-0.1263
-2.2601,-0.8523,-10.3453,-0.0171,-0.1186,-0.1364
-2.2051,-0.8356,-10.4555,-0.012,-0.0957,-0.1362
-2.1907,-0.8428,-10.4914,0.0,-0.0815,-0.1354
-2.1213,-0.8523,-10.5704,0.0045,-0.0743,-0.141
-1.9776,-0.9242,-10.489,0.0088,-0.0725,-0.1484
-1.8052,-0.9577,-10.4842,0.0085,-0.0901,-0.1468
-1.6089,-1.0367,-10.4172,-0.0032,-0.1516,-0.146
-1.4772,-1.075,-10.4962,-0.0149,-0.2425,-0.1474
-1.5706,-1.0319,-10.6398,-0.0264,-0.3475,-0.1498
-1.7526,-0.9457,-10.6015,-0.0336,-0.4495,-0.1569
-1.9489,-0.8356,-10.6255,-0.0402,-0.5287,-0.1596
-2.0566,-0.8068,-10.5608,-0.0469,-0.5865,-0.1545
-2.0566,-0.8835,-10.4842,-0.0586,-0.6339,-0.1468
-1.8364,-0.9768,-10.5704,-0.0703,-0.7117,-0.1436
-1.506,-1.075,-10.4435,-0.0914,-0.8439,-0.1444
-1.3575,-1.075,-10.3406,-0.1218,-1.0245,-0.1545
-1.3719,-1.0534,-10.2615,-0.1593,-1.2364,-0.1687
-1.2977,-1.0678,-10.0054,-0.2265,-1.5159,-0.1905
-0.7183,-1.1516,-10.2232,-0.2984,-1.8588,-0.2038
-0.4597,-1.3671,-10.2017,-0.4029,-2.2593,-0.1956
-0.4621,-1.3838,-10.058,-0.5004,-2.7454,-0.2129
-0.7973,-1.0367,-9.8857,-0.5633,-3.2442,-0.2545
-1.1037,-0.8763,-9.6917,-0.6398,-3.764,-0.2859
-1.5155,-0.759,-9.6869,-0.6662,-4.22,-0.3251
-2.1548,-0.7685,-9.6223,-0.7,-4.6767,-0.3424
-2.7174,-0.8284,-9.56,-0.7096,-5.0702,-0.3403
-3.5003,-0.8475,-9.493,-0.745,-5.394,-0.348
-4.2665,-0.4621,-9.1961,-0.6912,-5.6061,-0.417
-4.8195,-0.3759,-8.7963,-0.6518,-5.7492,-0.4479
-5.3917,-0.4908,-8.7532,-0.6294,-5.8723,-0.4559
-5.4085,-0.6512,-8.6455,-0.623,-5.9967,-0.4335
-5.6886,-0.8835,-8.4755,-0.6496,-6.0556,-0.4133
-5.8993,-0.9194,-8.2408,-0.6526,-6.1097,-0.4578
-5.8754,-0.8859,-8.0685,-0.6456,-6.1875,-0.4767
-5.6527,-0.8164,-7.944,-0.6265,-6.297,-0.506
-5.9017,-0.7685,-7.6591,-0.6297,-6.3701,-0.5223
-6.6008,-0.7063,-7.1898,-0.6305,-6.5878,-0.5769
-6.2441,-0.5531,-6.6463,-0.5593,-6.9517,-0.631
-5.114,-0.5722,-6.8953,-0.4474,-7.1095,-0.6547
-6.0023,-0.5411,-6.5027,-0.3232,-7.3637,-0.7069
-5.8275,-0.668,-5.6455,-0.2262,-7.7306,-0.7717
-6.1244,-0.2873,-5.0182,-0.0266,-7.8169,-0.8354
-6.6679,-0.498,-4.3958,-0.0298,-7.8678,-0.7853
-7.513,-0.8475,-3.8618,-0.1415,-7.7738,-0.7341
-8.4467,-1.1516,-3.5578,-0.2928,-7.4852,-0.6957
-9.1674,-1.2785,-3.3112,-0.425,-7.0724,-0.6249
-10.228,-1.2474,-3.4381,-0.5033,-6.4972,-0.5409
-11.0157,-1.0463,-3.7014,-0.5145,-5.8457,-0.4703
-11.3892,-0.8763,-3.6727,-0.4834,-5.1081,-0.3896
-11.3964,-0.7661,-3.9049,-0.4018,-4.2935,-0.3019
-11.631,-0.6201,-4.0486,-0.2907,-3.4408,-0.2249
-11.2288,-0.5339,-4.2353,-0.1564,-2.7256,-0.1791
-10.2639,-0.3663,-4.3766,-0.0083,-1.9526,-0.1159
-10.1418,-0.3687,-4.2186,0.1095,-1.2441,-0.0512
-9.7396,-0.3807,-4.1563,0.1966,-0.6483,0.0032
-9.4667,-0.4429,-4.1084,0.2611,-0.101,0.049
-9.335,-0.4094,-4.0869,0.323,0.356,0.0592
-9.1195,-0.4405,-4.027,0.3896,0.6726,0.0565
-8.4396,-0.6057,-4.063,0.4714,0.8236,0.045
-7.3717,-0.5555,-4.1396,0.5582,0.9076,0.0322
-6.869,-0.4884,-4.0294,0.5577,0.8617,0.0389
-5.9999,-0.7925,-4.2904,0.5292,0.643,0.0248
-5.3726,-0.7733,-4.1875,0.4674,0.4066,-0.0085
-5.2648,-0.8571,-4.2329,0.3898,0.1077,-0.0285
-5.4013,-0.7302,-4.0462,0.2907,-0.2249,-0.0282
-5.8921,-0.7302,-3.79,0.1423,-0.5894,-0.0213
-6.3351,-0.8547,-3.6943,0.0035,-0.9124,-0.0171
-7.0174,-0.8906,-3.5793,-0.1151,-1.1562,-0.0229
-7.5992,-0.8691,-3.4907,-0.2118,-1.2825,-0.032
-8.3079,-0.8452,-3.4022,-0.2758,-1.2971,-0.0413
-8.8011,-0.7398,-3.2609,-0.2912,-1.2465,-0.0474
-9.0381,-0.7015,-3.3208,-0.2758,-1.1114,-0.0386
-9.1602,-0.7087,-3.2944,-0.2443,-0.9206,-0.0261
-9.4978,-0.747,-3.2226,-0.2036,-0.712,-0.0306
-9.3829,-0.8906,-3.0981,-0.1529,-0.6241,-0.0525
-8.1499,-0.9984,-3.4046,-0.0807,-0.5404,-0.0725
-7.9535,-0.9864,-3.316,-0.0485,-0.4477,-0.0834
-7.8434,-0.9361,-3.158,-0.0573,-0.4554,-0.1055
-7.7812,-0.8954,-3.146,-0.064,-0.4703,-0.1212
-7.9703,-0.9768,-3.1891,-0.0754,-0.4826,-0.126
-7.9559,-0.9337,-3.1364,-0.0634,-0.5273,-0.1271
-7.944,-0.9697,-3.1077,-0.0581,-0.5644,-0.1156
-8.1068,-0.9553,-3.1699,-0.069,-0.5931,-0.1018
-8.4348,-0.9697,-3.0742,-0.0845,-0.6718,-0.0919
-8.1235,-1.0582,-3.225,-0.0855,-0.7368,-0.0842
-8.1499,-1.0271,-3.1077,-0.0962,-0.74,-0.0669
-8.43,-1.0534,-2.9018,-0.1082,-0.7666,-0.0349
-8.6,-0.9864,-2.7198,-0.1135,-0.7786,-0.0091
-8.7628,-0.9912,-2.6169,-0.1143,-0.7474,0.0168
-9.0237,-0.9888,-2.4373,-0.1055,-0.6933,0.0445
-9.1626,-1.0319,-2.2194,-0.0981,-0.6355,0.0655
-9.2368,-1.0558,-2.1284,-0.0858,-0.5708,0.0834
-9.0884,-1.0391,-2.1165,-0.0711,-0.5092,0.0887
-9.0716,-1.0654,-1.913,-0.0581,-0.429,0.0917
-9.1075,-1.0654,-1.8651,-0.056,-0.3555,0.0898
-9.2799,-1.0391,-1.7047,-0.0541,-0.3043,0.0858
-9.1171,-0.9601,-1.8124,-0.0453,-0.2888,0.0709
-9.0956,-0.9816,-1.8699,-0.0485,-0.2803,0.0512
-8.9615,-0.9936,-1.7573,-0.0488,-0.3288,0.025
-8.8035,-1.0918,-1.834,-0.0378,-0.3597,0.0027
-8.9495,-1.1013,-1.7573,-0.0376,-0.3941,-0.0187
-9.153,-1.1013,-1.6305,-0.0581,-0.445,-0.0381
-9.2129,-1.1085,-1.5778,-0.0863,-0.4818,-0.061
-9.4427,-1.154,-1.5275,-0.1244,-0.5108,-0.0754
-9.3829,-1.1803,-1.4796,-0.1548,-0.5577,-0.0887
-9.4499,-1.2186,-1.5179,-0.1935,-0.5753,-0.1047
-9.5457,-1.1253,-1.3695,-0.2382,-0.595,-0.1188
-9.6678,-1.087,-1.3671,-0.2801,-0.6153,-0.1252
-9.7324,-1.1013,-1.3815,-0.2931,-0.6587,-0.1527
-9.5146,-0.8882,-0.9529,-0.2699,-0.6803,-0.1897
-9.4451,-0.917,-0.6632,-0.3443,-0.672,-0.1588
-9.5648,-1.0127,-0.5746,-0.3917,-0.6936,-0.1628
-9.4308,-1.0774,-0.5243,-0.437,-0.7288,-0.1812
-9.3781,-1.0415,-0.4334,-0.4746,-0.7485,-0.1943
-9.2751,-1.0391,-0.316,-0.5057,-0.8082,-0.206
-9.0788,-1.0774,-0.2322,-0.5217,-0.8705,-0.2201
-9.1459,-1.0439,0.0383,-0.522,-0.9142,-0.2419
-9.2847,-1.1301,0.0742,-0.5327,-0.9691,-0.2606
-9.4403,-1.1301,0.2801,-0.5279,-1.0142,-0.2942
-9.4786,-1.0774,0.5124,-0.5678,-1.0333,-0.3062
-9.742,-1.3288,0.4334,-0.6153,-1.0288,-0.3048
-9.809,-1.3455,0.5938,-0.6547,-1.0376,-0.3174
-9.7779,-1.3479,0.6393,-0.7386,-1.0467,-0.3174
-9.8689,-1.3886,0.3567,-0.7837,-1.0424,-0.3349
-9.7564,-1.2019,0.5052,-0.8015,-1.0315,-0.3597
-9.7683,-1.1396,0.4094,-0.9193,-1.0003,-0.3328
-9.8809,-1.1875,0.0862,-0.9904,-0.9846,-0.3371
-9.7707,-1.1779,-0.0096,-1.0411,-0.9518,-0.3539
-9.7276,-1.1253,0.1652,-1.073,-0.8942,-0.3613
-9.7731,-1.0846,0.5076,-1.096,-0.8591,-0.3653
-9.7492,-1.0678,0.8835,-1.1045,-0.8596,-0.397
-9.7085,-1.0774,1.0654,-1.092,-0.8519,-0.4405
-9.5361,-0.9266,2.0542,-1.0685,-0.8681,-0.4887
-9.4595,-1.1229,2.3128,-1.1586,-0.8617,-0.4668
-9.6558,-1.3695,2.4421,-1.2468,-0.8687,-0.4652
-9.754,-1.312,2.6983,-1.3219,-0.9102,-0.4874
-9.6941,-1.1612,2.8108,-1.4128,-0.9451,-0.49
-9.7707,-1.0391,2.8826,-1.5271,-0.9667,-0.469
-10.0149,-1.1229,2.818,-1.622,-0.9387,-0.453
-11.3102,-1.0175,3.9504,-1.699,-0.9411,-0.4485
-12.5576,-1.5419,3.8427,-1.8679,-0.7997,-0.6747
-13.0484,-1.6137,-1.5514,-1.9079,-0.8458,-0.8306
-7.8865,1.3503,-27.4639,-2.1863,-0.2257,-0.2803
-7.6806,3.0765,-43.4045,-1.6417,0.4213,0.9838
-4.0342,5.8227,-32.9251,-0.5153,0.2401,0.2787
2.2577,3.5362,-18.7634,1.1962,0.1777,-0.5209
-1.3216,-0.7614,-5.7413,2.5055,-0.4676,-0.0376
-7.592,-5.612,0.8236,2.5714,-1.3107,-0.1191
-12.8952,-5.8203,1.6616,1.4029,-1.3923,-0.2321
-14.4275,-4.8004,1.1109,0.1609,-0.9118,-0.0384
-13.5105,-1.5251,0.7422,-0.4069,-0.2534,0.1996
-13.2208,1.2665,0.6967,-0.4549,0.3246,0.2896
-12.4738,2.3439,-0.0383,-0.1623,0.6243,0.1897
-10.331,2.3487,-1.075,0.0858,0.6526,0.113
-8.7245,1.6759,-2.4038,0.1964,0.4948,0.114
-8.102,0.4884,-2.7461,0.2755,0.198,0.0879
-7.3885,-0.6776,-2.0806,0.3115,-0.1148,0.0608
-6.5793,-1.6544,-1.4988,0.2097,-0.3397,0.0714
-6.8139,-2.1237,-1.2713,0.0115,-0.47,0.0642
-7.9224,-2.3032,-1.391,-0.182,-0.5268,0.012
-9.0214,-2.0183,-1.3479,-0.2822,-0.4282,-0.0589
-9.8904,-1.7741,-1.2713,-0.3174,-0.1657,-0.1087
-10.1825,-1.2306,-1.1253,-0.2433,0.1831,-0.1415
-9.9096,-0.9385,-0.668,-0.1199,0.566,-0.1428
-9.4643,-0.8404,-0.4214,-0.0005,0.8841,-0.1375
-9.0597,-0.8619,-0.3376,0.1122,1.0976,-0.1503
-8.7628,-1.154,-0.5004,0.1801,1.1959,-0.1524
-8.6359,-1.6113,-0.7901,0.1812,1.2364,-0.1476
-8.6862,-1.9225,-1.2091,0.1188,1.2303,-0.125
-8.8777,-1.968,-1.6161,0.0211,1.2116,-0.1308
-8.6862,-1.8435,-2.083,-0.0317,1.1485,-0.1175
-8.2887,-1.5395,-2.3415,-0.0597,1.072,-0.1079
-7.8434,-1.2067,-2.636,-0.0541,0.9313,-0.0703
-7.5178,-1.008,-3.0837,-0.0224,0.822,-0.0211
-7.6423,-0.917,-3.3974,0.0067,0.7466,0.0139
-7.8602,-0.9481,-3.6895,0.0149,0.6845,0.0421
-8.1666,-1.0032,-3.7062,0.0157,0.6374,0.0823
-8.6335,-1.1372,-3.7326,0.0242,0.6153,0.1268
-8.9495,-1.1133,-3.8427,0.036,0.619,0.1775
-9.3087,-1.1803,-3.9361,0.0344,0.7021,0.235
-9.7133,-1.087,-3.9217,0.1058,0.8223,0.2326
-9.8019,-0.7661,-3.6871,0.1721,0.9888,0.2683
-9.9695,-0.6249,-3.6368,0.2172,1.2217,0.2963
-10.0341,-0.644,-3.6727,0.2529,1.489,0.3387
-9.9503,-0.5052,-3.6344,0.2825,1.8186,0.3968
-10.1011,-0.6081,-3.8618,0.299,2.242,0.4858
-10.41,-0.498,-3.948,0.3757,2.6905,0.522
-11.5736,-0.3472,-3.5243,0.5279,2.9713,0.4594
-10.6686,-0.4812,-3.6871,0.635,2.9977,0.3853
-8.8873,-0.6321,-3.8188,0.8418,3.1842,0.3533
-8.248,-0.7374,-3.4836,0.9598,3.4145,0.3896
-8.181,-0.9337,-3.3351,0.9545,3.5503,0.4397
-8.5138,-1.3886,-3.4093,0.898,3.6228,0.4261
-8.6263,-1.1277,-3.5123,0.8108,3.7124,0.4359
-9.0309,-1.4269,-4.0773,0.6829,3.8946,0.4767
-9.0692,-0.917,-4.1492,0.6856,4.0398,0.4746
-8.8609,-0.5722,-4.2617,0.5804,4.2301,0.5833
-8.4084,-0.7566,-4.6663,0.497,4.4569,0.6755
-8.4228,-1.0942,-5.035,0.5468,4.7553,0.7147
-8.5688,-0.9313,-4.865,0.6406,5.0004,0.7533
-8.8681,-1.2163,-4.9512,0.818,5.2544,0.7272
-8.9184,-0.6297,-4.8315,0.8156,5.5139,0.8364
-9.177,-1.0702,-4.9775,0.7277,5.8579,0.9084
-9.1363,-1.1803,-5.1092,0.6989,6.1795,0.9665
-8.8418,-1.1732,-5.3127,0.7285,6.5491,1.0123
-8.521,-1.1229,-5.4133,0.8791,6.9219,1.0229
-7.9535,-0.7518,-5.0901,1.0781,7.2616,1.0488
-7.2664,-0.6776,-5.454,1.251,7.5897,1.0861
-6.8307,-0.8739,-5.4731,1.3638,7.8385,1.1005
-6.4069,-0.9984,-5.6599,1.4138,8.0229,1.0749
-6.213,-1.1516,-5.5785,1.4216,8.1554,1.0776
-5.7365,-1.1756,-5.8251,1.4522,8.2609,1.0781
-5.1882,-1.0511,-6.2393,1.4935,8.3824,1.068
-5.7557,-0.7566,-6.7876,1.5945,8.3064,1.1026
-4.1156,-1.2043,-6.4739,1.5465,8.3333,1.1437
-4.118,-1.4246,-7.106,1.4775,8.259,1.1628
-3.7182,-1.4198,-7.5393,1.4208,8.0512,1.1445
-2.8683,-1.506,-7.8266,1.344,7.7756,1.0986
-3.2633,-1.4054,-8.5473,1.3137,7.1156,1.1034
-0.4932,-1.4246,-8.0685,1.1591,6.4878,1.1354
-1.6592,-1.7717,-8.7005,1.0099,6.05,0.98
-0.9098,-1.3695,-9.0142,0.9028,5.2285,0.8873
-0.735,-1.5275,-8.7221,0.7847,4.5941,0.8039
-1.1157,-1.6448,-9.0285,0.6257,4.0084,0.769
-0.6009,-1.5897,-9.4308,0.4743,3.0704,0.8319
-0.6273,-1.6688,-9.0573,0.3248,2.6049,0.7562
-1.3815,-1.0511,-9.4212,0.2654,1.7272,0.6765
-1.3838,-1.2665,-8.904,0.0749,1.1863,0.6742
-2.4062,-0.7542,-8.9304,0.053,0.7965,0.5889
-2.9449,-0.7781,-8.9783,-0.0187,0.4511,0.5939
-3.4812,-0.9673,-8.7915,-0.1074,0.2142,0.6198
-3.5027,-0.6512,-8.7891,-0.0554,-0.0301,0.607
-3.8547,-0.7877,-8.8298,-0.0448,-0.1095,0.5841
-4.4005,-0.7638,-8.916,-0.0096,-0.1178,0.5161
-4.8171,-0.8021,-9.0477,0.0256,-0.0839,0.4746
-4.8267,-0.8643,-9.1818,0.0485,-0.016,0.4479
-4.628,-1.0032,-9.2991,0.0488,0.1218,0.4221
-4.4173,-1.1492,-9.3254,0.0301,0.2534,0.3805
-3.96,-1.2641,-9.4643,0.0075,0.3477,0.3427
-3.5554,-1.3551,-9.493,-0.0168,0.4077,0.3078
-3.1173,-1.2426,-9.6007,-0.0242,0.3978,0.2614
-2.9137,-1.1013,-9.6127,-0.033,0.3448,0.2113
-2.8706,-1.0558,-9.596,-0.0474,0.2763,0.162
-2.8347,-0.9529,-9.6893,-0.036,0.1628,0.1167
-3.0885,-1.0271,-9.6989,-0.0413,0.064,0.0783
-3.2513,-1.0726,-9.7827,-0.0666,-0.0349,0.0373
-3.4692,-0.9936,-9.9311,-0.0853,-0.0922,0.0037
-3.5937,-1.0032,-9.9192,-0.1058,-0.1452,-0.0139
-3.4931,-0.8619,-9.9335,-0.1106,-0.1665,-0.025
-3.371,-0.8811,-10.0126,-0.1063,-0.1761,-0.0338
-3.3399,-1.0008,-10.0485,-0.1047,-0.1809,-0.0549
-3.3088,-1.0654,-10.0413,-0.1055,-0.1764,-0.0837
-3.201,-1.166,-10.0748,-0.1013,-0.1561,-0.1018
-3.1412,-1.1157,-10.1562,-0.0951,-0.1284,-0.1098
-3.0167,-1.0965,-10.1897,-0.0933,-0.0847,-0.1119
-2.9305,-1.0415,-10.2496,-0.0869,-0.0312,-0.122
-2.8276,-1.1085,-10.3501,-0.0858,0.0248,-0.1274
-2.6935,-1.0894,-10.3382,-0.0853,0.073,-0.1298
-2.545,-1.0726,-10.41,-0.0791,0.1026,-0.125
-2.3942,-1.0678,-10.4339,-0.0829,0.1204,-0.1196
-2.3487,-1.1516,-10.4746,-0.1031,0.1276,-0.1178
-2.3679,-0.9313,-10.4866,-0.0807,0.1428,-0.1423
-2.2865,-0.8547,-10.556,-0.0701,0.1375,-0.1516
-2.1883,-0.984,-10.58,-0.0831,0.1479,-0.1495
-2.0183,-0.8667,-10.6326,-0.0568,0.141,-0.1649
-1.8028,-1.0439,-10.5991,-0.0578,0.1151,-0.1609
-1.6831,-0.9936,-10.7548,-0.0525,0.0677,-0.1681
-1.7837,-1.0439,-10.7236,-0.0344,0.0179,-0.1785
-1.8914,-0.9912,-10.6255,-0.0218,-0.0152,-0.1943
-1.9776,-1.0271,-10.6422,-0.0173,-0.0016,-0.2004
-1.9896,-1.0032,-10.6398,-0.0056,0.0386,-0.1927
-1.8507,-0.9888,-10.5656,0.0027,0.0826,-0.1849
-1.6831,-1.0199,-10.5225,0.0027,0.1282,-0.1745
-1.6233,-1.0199,-10.5824,0.0045,0.1442,-0.1665
-1.4772,-1.0247,-10.5177,0.0056,0.1479,-0.1593
-1.5036,-1.0295,-10.5201,0.0011,0.1484,-0.1535
-1.5179,-0.9601,-10.4387,0.0035,0.1343,-0.1479
-1.5395,-0.9266,-10.5441,0.0053,0.1106,-0.1359
-1.4964,-0.984,-10.5249,0.008,0.0903,-0.1292
-1.4581,-0.9744,-10.5752,0.008,0.0642,-0.1234
-1.5347,-0.9864,-10.4818,0.0088,0.0322,-0.1228
-1.5179,-1.0415,-10.4267,0.0109,0.0003,-0.1226
-1.5467,-1.0726,-10.4698,0.0128,-0.0179,-0.122
-1.6113,-1.1013,-10.4531,0.0165,-0.0189,-0.1223
-1.7717,-1.0654,-10.4363,0.016,-0.0149,-0.1284
-1.8364,-1.0511,-10.4315,0.0155,0.0072,-0.1364
-1.9178,-1.0247,-10.3932,0.0136,0.0368,-0.1452
-1.8579,-0.9409,-10.4028,0.0208,0.0714,-0.1545
-1.7693,-1.0271,-10.5465,0.0232,0.114,-0.1652
-1.7957,-1.0798,-10.4339,0.0245,0.1516,-0.1692
-1.8268,-1.0774,-10.4291,0.0306,0.1793,-0.1767
-1.8411,-1.0319,-10.41,0.0424,0.2044,-0.1756
-1.8316,-1.0223,-10.4076,0.0533,0.23,-0.1703
-1.6975,-1.0678,-10.41,0.0629,0.2558,-0.1604
-1.585,-1.0846,-10.3453,0.069,0.259,-0.1569
-1.4078,-1.142,-10.3789,0.0695,0.2364,-0.1514
-1.391,-1.154,-10.2544,0.0783,0.1958,-0.1447
-1.4054,-1.2043,-10.1969,0.0855,0.1522,-0.1428
-1.3743,-1.2689,-10.2568,0.085,0.1172,-0.1364
-1.2785,-1.2881,-10.1897,0.0751,0.0735,-0.121
-0.9242,-1.3767,-10.1825,0.0501,-0.0189,-0.1066
-0.2921,-1.4868,-10.331,0.0024,-0.1772,-0.093
0.2131,-1.5395,-10.647,-0.0368,-0.4002,-0.0839
0.2155,-1.6065,-10.307,-0.0906,-0.7155,-0.0781
0.3184,-1.5682,-9.9048,-0.1585,-1.089,-0.093
0.5555,-1.5083,-9.7444,-0.226,-1.4557,-0.1138
0.6081,-1.4246,-9.5816,-0.3224,-1.8786,-0.1407
0.8954,-1.5586,-9.5433,-0.4525,-2.3854,-0.1394
1.063,-1.5036,-9.7636,-0.5614,-2.9188,-0.1231
0.6393,-1.2641,-9.6558,-0.6512,-3.524,-0.1455
0.1796,-1.1636,-9.5289,-0.752,-4.1621,-0.1641
-0.2897,-1.0415,-9.402,-0.8388,-4.7713,-0.1879
-1.0989,-0.8284,-9.2608,-0.8545,-5.2464,-0.2148
-2.138,-0.7015,-9.2632,-0.8434,-5.6615,-0.2326
-2.648,-0.656,-9.6462,-0.7773,-5.8225,-0.2254
-4.877,-0.4118,-8.4539,-0.6158,-5.7175,-0.2435
-6.4093,0.0096,-7.8075,-0.4306,-5.5107,-0.3171
-7.9966,-0.0958,-7.6926,-0.3155,-5.0399,-0.2742
-7.9559,-0.6273,-8.2672,-0.284,-4.6556,-0.1852
-6.3255,-1.0104,-9.1075,-0.2337,-4.2122,-0.0802
-5.0182,-1.3575,-9.3446,-0.2435,-3.9436,-0.0338
-3.6943,-1.5227,-9.3613,-0.3131,-3.8896,-0.0187
-2.8012,-1.4916,-9.165,-0.3691,-3.9959,-0.0573
-2.7031,-1.3192,-8.7843,-0.4008,-4.1747,-0.1223
-4.2521,-1.1109,-8.0517,-0.4357,-4.6556,-0.203
-3.5099,-0.9098,-8.4635,-0.4442,-5.5176,-0.2617
-2.1404,-1.324,-9.1219,-0.4226,-6.199,-0.2891
-2.2482,-1.1803,-8.7197,-0.3477,-6.9992,-0.4034
-3.0215,-0.6967,-7.5824,-0.234,-7.8244,-0.5273
-4.3287,-0.5219,-6.6583,-0.1271,-8.6251,-0.6323
-5.4468,0.0263,-5.8083,0.1175,-8.7314,-0.7986
-6.6272,-0.431,-5.0613,0.0957,-8.7314,-0.7482
-6.1004,-1.1803,-4.9895,-0.0472,-8.7314,-0.6185
-7.2185,-1.6257,-3.96,-0.2284,-8.7314,-0.6235
-7.92,-1.7166,-3.146,-0.4037,-8.7314,-0.6126
-8.8538,-1.6376,-2.5881,-0.5276,-8.7314,-0.5662
-9.7205,-1.6065,-2.569,-0.5327,-8.7314,-0.5529
-8.5018,-1.1803,-2.7605,-0.4599,-8.7314,-0.4506
-9.2273,-1.3001,-2.3846,-0.4143,-8.6147,-0.3765
-9.8785,-0.8906,-2.229,-0.3872,-8.0136,-0.3179
-10.5273,-0.7422,-2.1141,-0.4042,-7.2712,-0.2102
-11.4586,-0.759,-2.2434,-0.3749,-6.3983,-0.1266
-12.1697,-0.5746,-2.3056,-0.3269,-5.5339,-0.0661
-12.3517,-0.6249,-2.5402,-0.2715,-4.8347,-0.0759
-10.9966,-0.9122,-2.6815,-0.1194,-4.0361,-0.0783
-10.8505,-0.8068,-2.3703,0.0949,-3.2538,-0.0581
-10.6638,-0.5387,-2.3152,0.3072,-2.6116,-0.0362
-9.9886,-0.237,-1.3408,0.4282,-2.1234,-0.0085
-10.0078,-0.5626,-1.4988,0.4279,-1.6755,-0.0168
-9.4427,-0.7422,-1.3455,0.5478,-1.4642,-0.0597
-8.2384,-0.3855,-1.0367,0.6861,-1.3464,-0.0887
-7.2281,-0.2514,-0.6129,0.7266,-1.275,-0.0687
-6.9168,-0.1915,-0.1269,0.615,-1.2428,-0.0032
-7.0605,-0.5124,0.0048,0.3925,-1.2748,0.0794
-7.6231,-0.747,0.0192,0.2337,-1.4354,0.0914
-7.853,-0.6416,0.0838,0.1183,-1.5119,0.1069
-8.7484,-0.5674,0.1748,0.0109,-1.4514,0.1354
-9.3972,-0.51,-0.0072,-0.0456,-1.2886,0.1415
-10.2544,-0.4717,-0.1053,-0.0552,-0.9731,0.1359
-10.6015,-0.5243,-0.2155,-0.0197,-0.6512,0.1343
-10.3813,-0.6919,-0.4166,0.02,-0.3392,0.125
-9.5529,-0.7542,-0.51,0.0709,-0.0232,0.1132
-9.3278,-0.7949,-0.3519,0.1039,0.2478,0.1023
-8.8969,-0.9074,-0.4357,0.1106,0.4533,0.0853
-8.7939,-0.9601,-0.4812,0.1023,0.6235,0.0679
-8.7819,-0.9768,-0.407,0.0765,0.7538,0.0562
-8.6646,-0.9146,-0.5171,0.053,0.8167,0.0453
-8.3869,-0.9242,-0.5555,0.0493,0.825,0.0373
-8.0948,-0.9529,-0.4812,0.0525,0.7871,0.0242
-8.0852,-0.9625,-0.5052,0.0312,0.7237,0.0179
-8.2672,-0.9409,-0.5507,-0.0016,0.6241,0.0155
-8.6191,-0.8954,-0.5531,-0.0381,0.542,0.0173
-8.9471,-0.9074,-0.6393,-0.0655,0.4975,0.0195
-9.2584,-0.8978,-0.759,-0.0757,0.4986,0.0354
-9.6654,-1.0104,-0.8332,-0.0826,0.4983,0.0501
-9.3446,-1.0846,-1.0367,-0.0538,0.4461,0.0624
-9.2249,-1.087,-0.929,-0.0309,0.4663,0.0693
-9.3206,-1.0942,-0.8667,-0.0203,0.4407,0.0767
-9.3422,-1.1396,-0.8643,-0.0131,0.4093,0.0866
-9.2991,-1.1779,-0.9816,-0.0091,0.3794,0.0938
-9.256,-1.1588,-0.9433,-0.0088,0.3693,0.1045
-9.2632,-1.166,-0.9481,-0.012,0.3778,0.1135
-9.3685,-1.1732,-0.9912,-0.0176,0.3714,0.1167
-9.4092,-1.2282,-0.9792,-0.0189,0.3381,0.1186
-9.0214,-1.245,-0.9816,-0.0104,0.2875,0.1167
-9.0716,-1.2234,-0.9218,-0.0109,0.2515,0.1122
-9.165,-1.2258,-0.8164,-0.0288,0.1961,0.1021
-9.5002,-1.1803,-0.7685,-0.0586,0.1815,0.0925
-9.9192,-1.1708,-0.7254,-0.0853,0.2073,0.0791
-10.1059,-1.1636,-0.6608,-0.1058,0.2638,0.0717
-10.2208,-1.0606,-0.8739,-0.1148,0.3419,0.0671
-10.3046,-0.9553,-1.075,-0.1212,0.4298,0.0546
-10.3334,-0.9194,-1.0127,-0.113,0.522,0.0426
-10.3693,-0.7973,-1.0175,-0.0949,0.652,0.0298
-10.2472,-0.7278,-0.9816,-0.0746,0.8633,0.0322
-10.489,-0.6991,-0.9433,-0.0586,1.1919,0.0474
-10.8888,-0.7494,-1.0702,-0.0426,1.5964,0.0722
-11.2312,-0.6632,-1.1995,-0.045,2.0797,0.121
-12.639,-0.759,-1.1732,-0.0616,2.5852,0.1591
-13.7547,-1.2905,-0.9577,-0.0229,2.3518,0.0677
-8.6263,-1.1492,-1.5203,0.2081,2.2322,-0.0035
-7.58,-1.1396,-1.2977,0.3051,2.4429,-0.0336
-7.3933,-1.1732,-0.8619,0.2899,2.2074,-0.069
-7.2065,-1.2474,-0.8715,0.1927,1.8631,-0.1111
-7.6998,-1.3001,-1.0463,0.0424,1.4922,-0.1506
-7.9511,-1.2905,-0.9697,-0.0914,0.9819,-0.1958
-8.0565,-1.087,-0.9936,-0.1743,0.5351,-0.2297
-8.4084,-0.9577,-0.8619,-0.2454,0.0762,-0.2603
-8.8011,-0.9242,-0.5866,-0.3083,-0.2758,-0.2896
-9.4188,-0.8619,-0.1652,-0.3632,-0.5617,-0.3102
-9.8809,-0.9409,0.2969,-0.389,-0.777,-0.3155
-10.2927,-1.0367,0.644,-0.4112,-0.9033,-0.312
-10.2663,-1.2258,0.8595,-0.4317,-1.0182,-0.3078
-10.2113,-1.3791,1.0511,-0.4722,-1.0741,-0.3102
-10.2831,-1.4317,1.1061,-0.538,-1.1223,-0.3155
-10.2903,-1.3431,1.1085,-0.619,-1.1559,-0.316
-10.3022,-1.257,0.7973,-0.6885,-1.1495,-0.3155
-10.2927,-1.2258,0.4669,-0.7392,-1.1362,-0.3203
-9.7875,-1.1923,0.1508,-0.74,-1.096,-0.3315
-9.651,-1.1756,0.2035,-0.725,-0.9883,-0.3365
-9.6798,-1.1803,0.2801,-0.7288,-0.9089,-0.3352
-9.7612,-1.1468,0.3567,-0.7621,-0.8108,-0.3459
-9.8067,-1.1277,0.4645,-0.7994,-0.7186,-0.3571
-9.8593,-1.1349,0.4645,-0.8244,-0.6257,-0.3669
-9.9192,-1.1133,0.5866,-0.8575,-0.5574,-0.3709
-9.9311,-1.0558,1.0223,-0.8996,-0.5574,-0.381
-9.9144,-0.9481,1.5802,-0.9374,-0.5694,-0.4082
-10.0461,-0.8763,1.913,-0.9899,-0.5875,-0.4431
-9.9431,-0.9505,2.0303,-1.0424,-0.6262,-0.4743
-9.6678,-0.9912,2.1045,-1.0752,-0.6568,-0.5039
-9.323,-0.8643,2.3128,-1.1554,-0.7008,-0.5143
-9.1171,-0.9457,2.2122,-1.2617,-0.7216,-0.4986
-9.0932,-0.8499,1.8028,-1.3579,-0.7626,-0.4887
-9.1602,-0.8787,1.3551,-1.4581,-0.8111,-0.478
-9.2296,-0.8068,1.0606,-1.5231,-0.882,-0.4796
-9.481,-0.747,1.0654,-1.5748,-0.9172,-0.4783
-9.6486,-0.7566,0.9433,-1.6108,-0.9198,-0.4727
-9.7444,-0.7614,0.9194,-1.6313,-0.8569,-0.4642
-9.821,-0.8164,0.9266,-1.6467,-0.7837,-0.457
-9.8545,-0.7949,1.3551,-1.6459,-0.7333,-0.4423
-10.6949,-0.9194,2.7821,-1.6449,-0.7917,-0.4314
-9.0429,-2.1668,-1.4748,-1.707,-0.74,-0.6515
-10.9559,-2.0662,-7.8099,-1.582,-1.715,-0.8223
-1.0439,1.5826,-52.0667,-1.7003,-1.8461,-0.3896
-10.1275,6.177,-43.2991,-1.4687,-1.995,0.8823
-0.1293,5.794,-24.3825,0.3198,-1.5028,-0.1969
-2.885,2.2817,-4.5466,2.1184,-0.7757,0.0112
-8.1379,-5.1619,1.9776,2.8122,-1.2614,-0.312
-11.2671,-6.6966,3.2106,2.2324,-1.3875,-0.1988
-13.4506,-5.5809,2.0853,0.5132,-0.7304,-0.0168
-14.0324,-1.6951,-2.1332,-0.7237,0.012,0.1508
-13.4434,2.3942,-3.3782,-1.0072,0.4074,0.2332
-11.6071,3.4836,-3.0167,-0.4642,0.6033,0.0573
-7.9775,3.6751,-2.9449,0.2281,0.5889,0.037
-5.1595,2.2505,-2.3966,0.5995,0.4109,0.0927
-3.8834,0.1077,-1.4533,0.6179,0.1106,0.0485
-4.0247,-1.4485,-0.656,0.4831,-0.2054,0.0416
-4.7214,-2.6432,-0.1053,0.2531,-0.5185,0.0759
-6.1435,-3.0358,-0.1006,-0.0085,-0.6891,0.0288
-7.75,-2.569,-0.5148,-0.1905,-0.6427,-0.0858
-8.9543,-2.1213,-0.7159,-0.2342,-0.441,-0.1514
-9.3637,-1.6592,-0.3855,-0.1966,-0.1338,-0.1631
-9.2799,-1.2522,0.0527,-0.0965,0.2166,-0.1308
-8.9112,-1.2019,0.6919,0.0035,0.5105,-0.0967
-9.3134,-1.3384,0.4621,0.0536,0.7826,-0.0957
-9.3661,-1.4748,0.0527,0.0586,0.8633,-0.0831
-9.3901,-1.7166,-0.3903,-0.0003,0.8796,-0.0775
-9.3158,-1.6855,-0.9457,-0.0813,0.7999,-0.0687
-9.1363,-1.7047,-1.5179,-0.1855,0.6779,-0.0592
-8.6191,-1.3455,-2.3032,-0.2372,0.5806,-0.0565
-8.3534,-1.0271,-2.6169,-0.2627,0.5025,-0.0253
-8.169,-0.7422,-3.0071,-0.2734,0.4578,0.0048
-8.1307,-0.5866,-3.4261,-0.2473,0.4191,0.0352
-8.3342,-0.4693,-3.5674,-0.1953,0.4096,0.0536
-8.5688,-0.3926,-3.4836,-0.1029,0.3946,0.0765
-8.9926,-0.4429,-3.3064,0.0075,0.4005,0.1061
-9.4739,-0.5842,-3.2681,0.1103,0.4399,0.1447
-9.5888,-0.8859,-2.8395,0.1484,0.5273,0.1588
-9.6893,-0.8643,-2.8922,0.1753,0.6105,0.166
-9.3565,-0.9146,-2.5809,0.2305,0.708,0.1841
-9.3278,-0.8428,-2.3032,0.3405,0.8247,0.2425
-9.4763,-0.8859,-2.0925,0.4277,0.9332,0.2886
-9.4786,-1.0678,-2.3343,0.4618,1.004,0.3078
-9.2823,-1.3647,-2.5857,0.4972,1.0885,0.3115
-9.1147,-1.3001,-2.3607,0.5396,1.1993,0.3285
-8.8609,-1.5802,-2.5067,0.5143,1.3438,0.3861
-8.6455,-1.4653,-2.4086,0.5391,1.5151,0.4037
-8.6503,-1.3096,-2.6336,0.5244,1.7328,0.4373
-8.9687,-1.2857,-2.8036,0.5073,1.9441,0.469
-9.244,-0.9816,-3.0095,0.5217,2.1698,0.5097
-9.7037,-0.759,-3.0311,0.5982,2.4517,0.5156
-9.7133,-0.3136,-3.1436,0.6014,2.8104,0.5841
-10.0389,-0.4764,-3.4117,0.6006,3.3001,0.6664
-10.3142,-0.4788,-3.5027,0.5979,3.8445,0.745
-11.0421,-1.2905,-3.7038,0.6899,4.415,0.7464
-10.9128,-0.6608,-3.5003,0.8644,4.9165,0.7757
-10.6734,-0.4405,-3.1556,0.903,5.5043,0.8604
-10.7212,-1.1133,-3.4884,0.8463,6.094,0.9603
-10.659,-1.5562,-3.6847,0.9577,6.5867,0.9499
-9.8521,-1.1923,-3.5985,1.1151,7.0586,0.8977
-9.0166,-1.0702,-3.2801,1.1796,7.6278,0.9422
-8.9016,-1.0271,-3.2944,1.2303,8.1793,0.9891
-8.5976,-1.142,-3.9816,1.2676,8.6989,1.0267
-8.521,-1.1875,-4.0797,1.2593,8.7312,1.0363
-7.9464,-1.3575,-4.3144,1.2231,8.7312,1.0544
-7.3885,-1.3695,-4.6807,1.2449,8.7312,1.092
-6.924,-1.1516,-5.1834,1.3147,8.7312,1.1135
-6.3063,-1.0391,-5.2385,1.3558,8.7312,1.1413
-5.6886,-1.1061,-5.1619,1.3939,8.7312,1.1668
-4.6855,-1.1205,-6.2848,1.424,8.7312,1.1882
-3.9313,-0.9553,-7.4484,1.4647,8.7312,1.1772
-3.5961,-1.0271,-7.9057,1.4663,8.7312,1.1594
-3.6559,-1.0511,-7.8338,1.4845,8.7312,1.0808
-2.6049,-0.759,-7.7548,1.4807,8.1114,1.0608
-3.5267,-1.3838,-7.288,1.3899,7.9973,1.0174
-3.3447,-1.4246,-7.58,1.254,7.4772,0.9958
-2.964,-1.5443,-7.6351,1.1165,7.0301,0.9499
-2.2841,-1.1995,-7.8338,0.9859,6.5249,0.8785
-3.0311,-1.1229,-8.8562,0.8716,5.8158,0.8745
-0.7063,-1.0151,-9.1554,0.7296,4.9144,0.8948
-1.5586,-1.0415,-9.584,0.6019,4.4371,0.7493
-1.5323,-0.4094,-10.0245,0.542,3.5408,0.651
-2.3032,-1.0104,-9.8426,0.4146,3.0838,0.5987
-1.3551,-0.893,-9.9647,0.3432,2.1933,0.671
-1.7765,-1.0487,-9.7133,0.2723,1.7547,0.6632
-1.482,-1.1636,-9.5672,0.215,1.2785,0.6331
-1.8268,-1.1349,-9.2536,0.1383,1.0845,0.5433
-2.5043,-1.0965,-9.1243,0.0813,0.9361,0.5388
-2.3008,-1.3599,-9.3518,-0.0085,0.6323,0.6057
-1.992,-1.221,-9.3613,-0.0064,0.4325,0.6302
-1.9992,-1.1037,-9.2727,0.0397,0.3288,0.5947
-2.5307,-1.1923,-9.4284,0.0221,0.2694,0.5702
-2.8084,-1.2186,-9.4691,-0.0333,0.2513,0.547
-2.8659,-1.1995,-9.414,-0.0573,0.214,0.546
-2.8084,-0.9936,-9.3829,-0.06,0.222,0.5385
-3.1149,-1.0774,-9.4786,-0.1106,0.1943,0.5383
-3.2561,-0.7805,-9.7252,-0.1276,0.1324,0.5153
-3.3615,-0.6105,-9.8402,-0.1378,0.0882,0.494
-3.4955,-0.5243,-9.9407,-0.1268,0.045,0.458
-3.5267,-0.498,-10.0245,-0.1183,0.025,0.4285
-3.5554,-0.5387,-10.1921,-0.1039,0.0245,0.4013
-3.6152,-0.5483,-10.2568,-0.0863,0.0285,0.3706
-3.5338,-0.6393,-10.2592,-0.0794,0.0216,0.3411
-3.3303,-0.6512,-10.2352,-0.0703,0.0053,0.308
-3.1891,-0.7853,-10.2592,-0.0887,-0.0328,0.2848
-3.0119,-0.8021,-10.1658,-0.0978,-0.0951,0.239
-3.0742,-0.6919,-10.1586,-0.0802,-0.1596,0.1825
-2.8922,-0.8739,-10.1849,-0.0914,-0.2475,0.1569
-2.988,-0.9266,-10.3238,-0.1074,-0.2888,0.1079
-3.1436,-0.7207,-10.3765,-0.0807,-0.3155,0.0533
-3.213,-0.8787,-10.5153,-0.0951,-0.3347,0.049
-3.2872,-0.8499,-10.5919,-0.1082,-0.3038,0.0232
-3.4548,-0.7997,-10.5704,-0.0997,-0.2526,-0.0107
-3.2872,-0.7566,-10.4603,-0.081,-0.2009,-0.0333
-3.2801,-0.8667,-10.3501,-0.0887,-0.1282,-0.0437
-3.1196,-0.893,-10.3765,-0.0911,-0.1002,-0.0525
-3.0095,-0.8164,-10.2376,-0.0709,-0.0573,-0.0669
-2.8563,-0.8164,-10.2496,-0.0602,-0.029,-0.0714
-2.6983,-0.8404,-10.1562,-0.0544,-0.0024,-0.0738
-2.7677,-0.7997,-10.3382,-0.0314,0.0218,-0.0813
-2.8922,-0.8092,-10.1873,-0.0152,0.0384,-0.0799
-2.9736,-0.7853,-10.1754,-0.0099,0.0773,-0.089
-3.1532,-0.6129,-10.2592,0.0115,0.1665,-0.1085
-3.0765,-0.6297,-10.489,0.0261,0.234,-0.1058
-2.8778,-0.656,-10.5273,0.0179,0.3131,-0.1026
-2.5905,-0.6752,-10.6398,0.0099,0.3507,-0.0973
-2.3391,-0.6967,-10.5967,0.0061,0.3533,-0.0946
-2.1644,-0.6416,-10.6614,0.012,0.3155,-0.0962
-2.0446,-0.7087,-10.6374,0.0088,0.2625,-0.0981
-2.0494,-0.8475,-10.5991,-0.0013,0.2148,-0.105
-1.9992,-0.9577,-10.6159,-0.0125,0.1681,-0.1148
-1.9489,-0.9625,-10.671,-0.0258,0.1223,-0.1202
-1.9082,-0.9529,-10.5872,-0.0352,0.0621,-0.118
-1.8196,-0.9553,-10.4866,-0.0333,-0.0064,-0.1162
-1.7262,-0.8571,-10.4531,-0.0264,-0.0821,-0.1266
-1.7765,-0.9218,-10.3094,-0.0115,-0.1399,-0.1412
-1.9249,-0.9266,-10.2113,-0.0075,-0.1697,-0.15
-2.1955,-0.8308,-10.0796,0.0093,-0.1791,-0.1697
-2.2194,-0.8739,-10.0724,0.0189,-0.1609,-0.1724
-2.3248,-0.8811,-10.0892,0.0306,-0.1162,-0.1767
-2.2673,-0.8643,-10.0533,0.0466,-0.0554,-0.1852
-2.3272,-0.8906,-10.0485,0.0541,0.0171,-0.1927
-2.2913,-0.8356,-10.1011,0.057,0.0818,-0.198
-2.1165,-0.838,-10.1418,0.0687,0.1532,-0.1996
-2.0255,-0.8763,-10.228,0.0685,0.203,-0.1993
-1.8651,-0.826,-10.2496,0.0653,0.2342,-0.2004
-1.7813,-0.8739,-10.3262,0.0594,0.2475,-0.2009
-1.652,-0.826,-10.3956,0.0608,0.2284,-0.199
-1.5897,-0.8045,-10.3286,0.0613,0.1998,-0.1998
-1.6065,-0.8356,-10.3837,0.0514,0.1735,-0.2009
-1.5299,-0.8452,-10.4579,0.0517,0.1399,-0.2004
-1.4317,-0.9218,-10.3956,0.045,0.0954,-0.2006
-1.2833,-0.996,-10.4483,0.0288,0.0298,-0.199
-0.9984,-1.0798,-10.4675,0.0043,-0.0602,-0.1974
-0.6273,-1.1253,-10.4555,-0.0173,-0.186,-0.1876
-0.4884,-1.1325,-10.2687,-0.0408,-0.3488,-0.1788
-0.3783,-1.142,-10.0389,-0.0727,-0.5425,-0.1729
-0.2011,-1.1588,-9.8426,-0.1098,-0.748,-0.1657
-0.0551,-1.2833,-9.6965,-0.1583,-0.9638,-0.1564
0.0862,-1.2641,-9.505,-0.2372,-1.2492,-0.1506
0.4764,-1.324,-9.6175,-0.3328,-1.6278,-0.1359
1.0846,-1.403,-9.9383,-0.4085,-2.0899,-0.126
1.2474,-1.4676,-9.9144,-0.4735,-2.5913,-0.1154
0.8547,-1.4365,-9.5936,-0.5756,-3.1304,-0.1124
0.4573,-1.3144,-9.5002,-0.676,-3.6972,-0.1132
-0.091,-1.1013,-9.4355,-0.745,-4.1792,-0.114
-1.0439,-0.8499,-9.2249,-0.793,-4.6596,-0.1274
-1.4581,-0.7733,-9.2488,-0.85,-5.1603,-0.1148
-1.8172,-0.7638,-9.3374,-0.8615,-5.6186,-0.1143
-2.1332,-0.3376,-9.1363,-0.7711,-5.98,-0.1727
-2.6911,-0.407,-8.7005,-0.7482,-6.3152,-0.1807
-3.5961,-0.5028,-8.3438,-0.7901,-6.657,-0.1956
-4.0773,-0.4381,-8.2145,-0.7887,-7.0144,-0.2337
-3.8666,-0.4214,-8.3773,-0.752,-7.2766,-0.2222
-4.197,-0.5555,-8.0756,-0.7176,-7.5164,-0.2238
-4.3311,-0.6105,-7.7309,-0.6987,-7.7772,-0.255
-4.6256,-0.5555,-7.3694,-0.6891,-7.9915,-0.2825
-5.5354,-0.5602,-7.2329,-0.6702,-8.2401,-0.3219
-5.9616,-0.2753,-6.9408,-0.526,-8.4988,-0.3989
-6.6966,-0.1437,-6.6008,-0.3421,-8.6123,-0.4381
-7.1946,0.0144,-6.7756,-0.0943,-8.7139,-0.4407
-6.9767,-0.4453,-5.8634,0.0179,-8.72,-0.445
-7.2616,-0.7733,-5.6216,-0.0147,-8.6161,-0.4072
-8.339,-1.257,-4.9488,-0.1775,-8.5777,-0.4013
-7.5202,-1.4222,-5.0039,-0.2486,-8.6715,-0.4458
-7.0174,-1.0678,-4.7022,-0.2252,-8.4442,-0.4349
-8.1762,-0.8523,-3.8523,-0.2675,-8.2236,-0.4301
-8.4635,-0.7494,-3.371,-0.2537,-8.0754,-0.4394
-8.6574,-0.5171,-3.0646,-0.2201,-7.7136,-0.3856
-9.4116,-0.5028,-2.715,-0.2491,-7.2233,-0.2992
-10.149,-0.6321,-2.3607,-0.2649,-6.6887,-0.2483
-10.5153,-0.5986,-2.1763,-0.2553,-6.0812,-0.2025
-11.0109,-0.5578,-1.9896,-0.2313,-5.3708,-0.1511
-11.6933,-0.395,-1.7669,-0.1897,-4.7012,-0.1037
-11.1881,-0.5124,-2.1428,-0.137,-4.1286,-0.0642
-10.3884,-0.3424,-2.4852,0.0085,-3.366,-0.0298
-11.0875,-0.2298,-2.2218,0.0917,-2.6569,0.0123
-10.4459,-0.2035,-2.3511,0.162,-2.1967,0.037
-9.6869,-0.237,-2.5977,0.2553,-1.5823,0.0751
-9.8043,-0.091,-2.6384,0.3528,-1.0448,0.117
-10.1993,-0.103,-2.411,0.4367,-0.7504,0.1119
-8.7987,-0.2801,-2.4684,0.5311,-0.6571,0.0645
-8.0278,-0.419,-2.399,0.6291,-0.4311,0.0738
-8.0756,-0.3424,-1.9178,0.6672,-0.4167,0.0738
-7.4891,-0.3424,-1.506,0.5335,-0.57,0.1069
-7.2353,-0.7566,-1.3719,0.4189,-0.6747,0.085
-7.5106,-0.7302,-1.0223,0.3659,-0.8045,0.0698
-7.7045,-0.4166,-0.7973,0.308,-0.915,0.0805
-8.2361,-0.5004,-0.7638,0.1892,-0.9214,0.1354
-8.9088,-0.5243,-0.644,0.0938,-0.8671,0.1588
-9.6391,-0.5459,-0.4908,0.032,-0.6899,0.1506
-10.3573,-0.5842,-0.5914,0.0045,-0.4871,0.1426
-10.7308,-0.5914,-0.5962,-0.0003,-0.2723,0.1295
-10.5824,-0.6967,-0.7614,0.0133,-0.0221,0.1191
-10.4483,-0.6177,-0.7638,0.0389,0.2332,0.1005
-10.1969,-0.5602,-0.7949,0.052,0.4596,0.0815
-9.8857,-0.5746,-0.8547,0.0626,0.6265,0.0568
-9.5002,-0.6321,-1.0439,0.0674,0.7538,0.04
-9.347,-0.6632,-1.0654,0.0727,0.7837,0.0147
-8.7484,-0.6321,-1.0894,0.0895,0.7557,-0.0085
-8.5114,-0.6632,-1.1444,0.081,0.7171,-0.0195
-8.3773,-0.6728,-1.0654,0.0408,0.6097,-0.0298
-8.3606,-0.6919,-1.0319,0.0053,0.4732,-0.0341
-8.4898,-0.6321,-1.0582,-0.0248,0.3246,-0.0336
-8.7149,-0.6321,-1.0439,-0.0402,0.162,-0.0317
-8.904,-0.6919,-0.8978,-0.0549,0.0152,-0.0256
-9.2344,-0.8092,-0.7925,-0.0783,-0.0866,-0.0181
-9.4691,-0.8523,-0.5938,-0.1015,-0.1452,-0.0141
-9.8234,-0.8404,-0.5674,-0.1311,-0.1868,-0.0115
-9.8186,-0.8428,-0.486,-0.1388,-0.2286,-0.0123
-9.7803,-0.8021,-0.3879,-0.1407,-0.2182,-0.0085
-9.833,-0.814,-0.3711,-0.145,-0.2009,-0.0107
-9.9144,-0.7733,-0.3376,-0.154,-0.174,-0.0141
-10.0102,-0.7853,-0.4381,-0.1689,-0.1519,-0.0203
-9.9838,-0.8164,-0.565,-0.1847,-0.1156,-0.0277
-9.8138,-0.7853,-0.7254,-0.1903,-0.0815,-0.0338
-9.7324,-0.7326,-0.7542,-0.1865,-0.0408,-0.0384
-9.5648,-0.7111,-0.7446,-0.186,-0.0091,-0.0445
-9.5313,-0.6967,-0.747,-0.1887,0.0245,-0.0512
-9.5505,-0.7135,-0.5842,-0.19,0.0365,-0.0565
-9.6343,-0.7829,-0.4764,-0.1953,0.0229,-0.064
-9.4403,-0.7829,-0.4549,-0.2001,-0.0136,-0.0674
-9.5122,-0.7183,-0.4118,-0.2185,-0.0448,-0.0669
-9.6007,-0.7685,-0.34,-0.2446,-0.0973,-0.0775
-9.6079,-0.7135,-0.158,-0.2662,-0.1391,-0.0922
-9.809,-0.7757,-0.1676,-0.2907,-0.1729,-0.1029
-9.8354,-0.7518,-0.1149,-0.3147,-0.2025,-0.1127
-9.8138,-0.747,-0.1604,-0.3432,-0.2366,-0.1266
-9.6941,-0.723,-0.261,-0.373,-0.2585,-0.1466
-9.6486,-0.6895,-0.2562,-0.4072,-0.2758,-0.1591
-9.5768,-0.656,-0.2322,-0.4343,-0.2968,-0.1748
-9.5624,-0.5986,-0.2897,-0.4575,-0.2931,-0.1887
-9.5409,-0.6584,-0.2466,-0.4802,-0.3051,-0.1945
-9.5624,-0.644,-0.3184,-0.5057,-0.3011,-0.1993
-9.6271,-0.6847,-0.2059,-0.5361,-0.284,-0.2014
-9.6774,-0.68,-0.1915,-0.5556,-0.2753,-0.2113
-9.6343,-0.7254,-0.17,-0.567,-0.2406,-0.2268
-9.6175,-0.6847,-0.2227,-0.5894,-0.199,-0.2329
-9.5577,-0.7302,-0.249,-0.6091,-0.1732,-0.2353
-9.5553,-0.7207,-0.2705,-0.6227,-0.1665,-0.243
-9.4906,-0.7518,-0.1365,-0.6366,-0.1812,-0.2571
-9.4092,-0.8308,0.0,-0.6494,-0.1905,-0.2699
-9.3518,-0.8787,-0.0599,-0.6723,-0.1876,-0.2763
-9.426,-0.9146,0.012,-0.6947,-0.1801,-0.2777
-9.3996,-0.917,0.0383,-0.7013,-0.1639,-0.2832
-9.3996,-0.9194,0.1772,-0.7005,-0.1735,-0.2814
-9.244,-0.9888,0.1413,-0.7024,-0.1876,-0.2918
-9.1387,-0.9313,0.2203,-0.7035,-0.2278,-0.303
-9.1075,-0.8092,0.316,-0.7333,-0.2534,-0.2947
-9.1506,-0.8954,0.3903,-0.7829,-0.2761,-0.2859
-9.0908,-0.8811,0.4836,-0.8148,-0.3032,-0.2878
-9.0333,-0.8595,0.4094,-0.846,-0.3254,-0.2867
-8.9783,-0.8212,0.4405,-0.878,-0.3608,-0.2912
-8.9567,-0.8619,0.2658,-0.9052,-0.4271,-0.3
-8.8705,-0.6871,0.486,-0.9212,-0.4908,-0.3086
-9.0453,-0.7446,0.7183,-0.9907,-0.5476,-0.292
-9.2943,-0.826,0.8667,-1.0413,-0.6094,-0.3027
-9.4188,-0.905,0.9864,-1.0888,-0.6547,-0.3163
-9.4499,-0.8308,1.087,-1.1258,-0.6659,-0.3291
-9.3637,-0.8092,1.0582,-1.1612,-0.6379,-0.3328
-9.4379,-0.7614,1.0989,-1.1772,-0.5809,-0.3344
-9.5265,-0.7446,1.1013,-1.1842,-0.534,-0.3405
-9.5505,-0.7207,1.3671,-1.19,-0.498,-0.3435
-9.6462,-0.7685,1.6879,-1.2036,-0.4271,-0.3477
-9.7851,-0.8356,1.8747,-1.2438,-0.3373,-0.3405
-9.8665,-0.8452,1.9465,-1.2966,-0.2419,-0.3277
-9.9719,-0.8212,2.1476,-1.3512,-0.1543,-0.3139
-10.1347,-0.7302,2.3894,-1.4173,-0.0794,-0.3246
-10.0509,-0.5842,2.5522,-1.4861,-0.0245,-0.3416
-10.7404,-0.5674,3.2777,-1.5396,0.0576,-0.3541
-11.8513,-0.2179,-4.0079,-1.6268,-0.0362,-0.5534
-10.6614,-0.893,-24.3754,-1.8519,-1.3598,-0.7893
-4.1899,2.7869,-51.5448,-1.2247,-1.189,0.0767
-9.3948,8.4874,-34.2491,-1.0794,-1.6246,-0.0472
-4.3981,6.7947,-17.7051,0.5758,-0.9513,-0.2353
-7.7979,1.2546,-3.7733,2.2908,-0.0632,-0.0101
-10.1155,-7.0413,2.2553,2.9537,-0.1234,-0.2097
-8.9998,-8.2863,2.2984,2.4773,-0.1865,-0.174
-9.153,-3.7134,1.0654,0.6478,-0.1561,0.0648
-10.635,-0.5171,-1.142,-0.5183,-0.089,0.1463
-11.7292,2.5331,-1.6712,-0.7186,-0.0354,0.1916
-12.1506,3.3208,-2.2649,-0.3293,0.1466,0.0602
-9.6223,2.9616,-1.9178,0.2374,0.2164,0.0027
-7.118,1.3623,-1.0511,0.5007,0.1761,0.052
-6.6487,-0.2514,-0.8859,0.4426,-0.0613,-0.0101
-7.1658,-1.3934,-0.905,0.2225,-0.3597,-0.1039
-7.6088,-2.2194,-0.9553,0.0136,-0.481,-0.0887
-8.0996,-2.478,-1.2258,-0.1463,-0.3864,-0.0773
-8.7867,-2.2122,-1.7023,-0.2441,-0.0927,-0.154
-9.1291,-1.7813,-2.0159,-0.2707,0.2545,-0.2374
-8.9399,-1.3288,-1.8842,-0.2398,0.5894,-0.2721
-8.5784,-0.8691,-1.4341,-0.1719,0.8633,-0.2689
-8.169,-0.5722,-0.905,-0.0743,1.0381,-0.2537
-7.8458,-0.6201,-0.419,-0.0069,1.1207,-0.2265
-7.9918,-1.0487,-0.4166,-0.0144,1.0957,-0.2113
-8.3606,-1.4078,-0.5746,-0.0533,1.0091,-0.2089
-8.825,-1.6592,-0.8021,-0.1223,0.911,-0.2049
-9.1339,-1.7358,-1.1444,-0.2081,0.8055,-0.2012
-8.8705,-1.391,-1.719,-0.2342,0.7285,-0.1974
-8.5497,-1.2234,-2.3607,-0.2273,0.7027,-0.1753
-8.2815,-0.9529,-2.7246,-0.2076,0.6694,-0.1529
-8.0397,-0.7757,-3.0694,-0.1791,0.6001,-0.1151
-7.8913,-0.6105,-3.0574,-0.1711,0.5228,-0.0954
-7.9248,-0.5195,-3.122,-0.1367,0.4325,-0.0879
-8.2145,-0.6752,-2.8539,-0.0386,0.3768,-0.0424
-8.6239,-0.917,-2.7414,0.0959,0.3379,0.0085
-8.904,-1.1923,-2.4493,0.1679,0.3275,0.0485
-8.9399,-1.415,-2.2458,0.1919,0.3403,0.0765
-8.9854,-1.5012,-2.1572,0.1985,0.3696,0.122
-9.1674,-1.4557,-2.0638,0.2278,0.3992,0.1612
-9.4451,-1.415,-1.7047,0.2641,0.4431,0.1895
-9.6798,-1.3767,-1.5802,0.2878,0.4972,0.1977
-9.4715,-1.3431,-1.7526,0.296,0.5934,0.2257
-9.3589,-1.2953,-1.9154,0.2888,0.744,0.2649
-9.2608,-1.1947,-2.0446,0.296,0.911,0.287
-8.9639,-1.1037,-2.3727,0.3288,1.117,0.2942
-8.9471,-0.7997,-2.569,0.3437,1.3904,0.3187
-9.3134,-0.9936,-2.9616,0.3107,1.6697,0.3696
-9.4212,-1.0127,-3.2657,0.4463,1.9335,0.3299
-9.4236,-0.4118,-3.1651,0.4855,2.314,0.4138
-10.4148,-0.5842,-3.4524,0.4351,2.5586,0.453
-9.5792,-0.9744,-4.0055,0.5502,2.4528,0.3512
-7.6207,-0.7757,-4.1635,0.721,2.4568,0.2955
-7.3885,-0.7302,-4.1108,0.8082,2.4669,0.3006
-7.3071,-0.7566,-3.7397,0.8116,2.3299,0.2854
-7.4771,-0.8045,-3.3519,0.7568,2.2122,0.2622
-7.9009,-0.8068,-3.0718,0.6907,2.124,0.2542
-8.2648,-0.7183,-2.9353,0.6278,2.0547,0.2691
-8.6095,-0.7015,-2.9904,0.5694,2.0475,0.3214
-8.8777,-0.6345,-3.0765,0.5782,2.0696,0.3312
-8.8107,-0.3663,-3.1747,0.5849,2.1637,0.3629
-9.0405,-0.5602,-3.1388,0.5505,2.399,0.4197
-9.5361,-0.4381,-3.4381,0.5593,2.7363,0.4495
-10.2089,-0.6512,-3.7589,0.554,3.1325,0.4727
-10.228,-0.5914,-4.0031,0.5772,3.5962,0.5169
-10.1993,-0.486,-4.1037,0.5508,4.1091,0.5873
-10.5082,-1.2043,-4.7214,0.4655,4.7081,0.6781
-10.1993,-0.7973,-4.7405,0.6563,5.191,0.6478
-9.6798,-0.6129,-4.5059,0.7695,5.7044,0.7088
-8.6886,0.0646,-4.3191,0.7693,6.2539,0.8388
-9.3996,-1.6352,-5.2289,0.8612,6.8825,0.8993
-8.6239,-0.7087,-5.1499,1.169,7.1953,0.8708
-7.999,-0.7278,-5.0087,1.3185,7.5897,0.9217
-7.6231,-0.9122,-5.2098,1.4138,7.9496,0.9662
-7.1156,-1.0534,-5.3534,1.4834,8.2393,0.9995
-6.7421,-1.1564,-5.5043,1.518,8.4815,1.0158
-6.3949,-1.2809,-5.6048,1.5012,8.6819,1.0501
-5.9735,-1.3862,-5.964,1.4655,8.7312,1.0797
-5.6743,-1.3048,-6.1699,1.4469,8.7312,1.0896
-5.4636,-1.1636,-5.9831,1.4402,8.7312,1.0688
-5.9687,-0.7111,-6.8139,1.5308,8.6827,1.056
-4.0366,-1.0463,-6.4596,1.4703,8.4589,1.0674
-4.3503,-1.1109,-6.9815,1.3875,8.1751,1.0349
-3.6966,-1.1612,-7.4101,1.2756,7.8503,1.0174
-4.1468,-1.3815,-7.8386,1.2071,7.5041,0.9963
-1.6496,-1.1779,-7.9942,1.1562,6.6107,1.0328
-1.3934,-1.3431,-7.5872,1.0509,6.3365,0.9502
-1.9441,-1.1684,-8.7029,0.9382,5.6679,0.8865
-1.1971,-1.1875,-8.5401,0.8431,5.0188,0.8431
-1.403,-1.4437,-8.7939,0.7194,4.4758,0.7922
-1.4533,-1.0798,-9.019,0.6344,3.8888,0.745
-1.5299,-1.549,-8.7987,0.4674,3.4944,0.7213
-1.8196,-1.2163,-9.347,0.3805,2.6721,0.7679
-0.0958,-1.4246,-8.9687,0.2587,2.0312,0.8023
-2.8347,-1.1636,-9.153,0.1945,1.9265,0.6454
-1.4844,-1.1444,-9.4379,0.1138,1.044,0.7117
-1.2881,-1.0487,-8.9807,0.0557,0.8258,0.6752
-2.5091,-0.7685,-9.4164,0.0125,0.6035,0.6254
-2.3703,-0.996,-9.2991,-0.0232,0.3733,0.6238
-2.9712,-1.0439,-9.493,-0.0757,0.1852,0.6382
-2.8228,-0.6584,-9.5672,-0.0378,-0.0104,0.6446
-3.3423,-0.5722,-9.5577,-0.0149,-0.0421,0.6086
-4.118,-0.4094,-9.7899,-0.0013,-0.0445,0.5548
-4.3886,-0.419,-9.8354,0.0176,-0.041,0.5417
-4.3287,-0.6153,-9.9024,0.0245,0.0205,0.5348
-4.3934,-0.6656,-9.9072,0.0165,0.1455,0.5087
-4.2114,-0.7973,-9.9264,-0.0354,0.2332,0.4786
-4.027,-0.7063,-9.9407,-0.0368,0.311,0.433
-3.7996,-0.8164,-9.9982,-0.0274,0.3222,0.4098
-3.5338,-0.917,-9.9024,-0.033,0.3088,0.3776
-3.3974,-0.8715,-9.9192,-0.028,0.2587,0.3363
-3.5051,-0.8667,-9.9934,-0.0386,0.2268,0.2758
-3.4788,-0.8116,-9.9575,-0.0466,0.1841,0.2172
-3.3423,-0.7901,-9.9623,-0.0378,0.1524,0.1775
-3.1508,-0.8859,-9.9383,-0.0405,0.1244,0.1487
-3.043,-0.9481,-9.9288,-0.0573,0.0743,0.1204
-2.9736,-0.9553,-9.9407,-0.077,0.0242,0.0943
-3.0263,-0.9864,-10.0245,-0.0957,-0.02,0.0693
-3.0909,-0.9864,-10.0533,-0.1154,-0.037,0.0464
-3.0981,-0.9385,-10.0221,-0.1191,-0.0394,0.0245
-3.122,-0.9218,-10.0461,-0.114,-0.0141,-0.0059
-3.1101,-1.0271,-10.1754,-0.109,-0.0045,-0.0306
-3.1436,-1.0008,-10.2089,-0.1074,0.0173,-0.0538
-3.1675,-0.9864,-10.3358,-0.1087,0.0418,-0.0746
-3.122,-0.9673,-10.3238,-0.1007,0.0682,-0.0957
-2.9951,-0.9385,-10.3884,-0.0922,0.1007,-0.1108
-2.9425,-0.9337,-10.386,-0.0775,0.1372,-0.1215
-2.7533,-0.9218,-10.4244,-0.0666,0.1689,-0.1298
-2.6288,-0.9337,-10.386,-0.0544,0.1945,-0.1356
-2.5522,-0.9337,-10.386,-0.041,0.2078,-0.1444
-2.4995,-0.9457,-10.3238,-0.0344,0.2276,-0.1545
-2.4373,-0.972,-10.3597,-0.0309,0.2467,-0.1617
-2.3846,-0.9577,-10.422,-0.0328,0.2771,-0.1668
-2.2913,-0.9074,-10.4435,-0.0256,0.2955,-0.1719
-2.2098,-0.8835,-10.4866,-0.0189,0.3043,-0.174
-2.229,-0.9194,-10.5273,-0.0189,0.308,-0.1769
-2.1141,-0.9313,-10.6015,-0.0197,0.3048,-0.1812
-2.0255,-0.984,-10.7164,-0.0149,0.291,-0.182
-1.8962,-1.0463,-10.6542,-0.0117,0.2657,-0.1876
-1.7262,-1.0558,-10.5776,-0.016,0.2254,-0.1956
-1.5562,-1.0702,-10.5129,-0.016,0.1705,-0.1998
-1.4246,-1.075,-10.477,-0.0165,0.109,-0.2006
-1.3216,-1.0846,-10.6015,-0.0141,0.0482,-0.2001
-1.3527,-1.142,-10.5369,-0.0101,-0.0128,-0.1988
-1.4054,-1.142,-10.4363,-0.0093,-0.0674,-0.1972
-1.4533,-1.1229,-10.2999,-0.0032,-0.1106,-0.1956
-1.4006,-1.0822,-10.2663,-0.0032,-0.1375,-0.1889
-1.3479,-1.1372,-10.2208,-0.0083,-0.1561,-0.1785
-1.2857,-1.166,-10.2472,-0.0083,-0.1817,-0.1713
-1.3479,-1.2163,-10.3118,0.0005,-0.2009,-0.1641
-1.4964,-1.2139,-10.3477,0.0056,-0.2068,-0.1671
-1.7334,-1.2115,-10.331,0.0139,-0.1812,-0.1655
-1.8651,-1.1612,-10.4818,0.0205,-0.1268,-0.1545
-1.8699,-1.1396,-10.489,0.0301,-0.0578,-0.1412
-1.9441,-1.0654,-10.5034,0.0384,0.0171,-0.1335
-1.8483,-1.0534,-10.6303,0.0424,0.0882,-0.1287
-1.731,-1.1109,-10.6925,0.0418,0.1386,-0.1298
-1.6352,-1.1061,-10.6207,0.0474,0.1695,-0.1287
-1.5179,-1.1396,-10.5752,0.0493,0.1799,-0.1271
-1.4796,-1.1013,-10.4196,0.0506,0.1865,-0.1268
-1.4461,-1.0678,-10.3956,0.0517,0.1799,-0.1282
-1.336,-1.0319,-10.3358,0.0437,0.1527,-0.125
-1.0774,-1.0534,-10.4004,0.0392,0.1029,-0.1234
-0.8068,-1.1205,-10.3046,0.032,0.0384,-0.122
-0.6225,-1.221,-10.2161,0.0187,-0.0504,-0.1207
-0.4525,-1.3001,-10.1107,-0.0021,-0.1663,-0.1151
-0.3687,-1.3048,-9.9886,-0.0211,-0.3016,-0.1122
-0.3903,-1.2306,-9.8593,-0.0381,-0.429,-0.1116
-0.5363,-1.1923,-9.7923,-0.0549,-0.5433,-0.1127
-0.68,-1.1468,-9.8402,-0.077,-0.668,-0.1103
-0.6057,-1.2067,-9.7659,-0.1071,-0.818,-0.1034
-0.4645,-1.2665,-9.8809,-0.142,-1.0008,-0.0917
-0.3352,-1.2881,-9.8713,-0.1793,-1.2263,-0.0797
-0.4046,-1.3551,-9.8402,-0.2361,-1.4893,-0.0706
-0.4262,-1.2402,-9.8043,-0.2987,-1.7805,-0.0789
-0.4094,-1.1636,-9.8402,-0.3264,-2.0185,-0.0967
-0.6321,-1.1684,-9.7827,-0.3661,-2.2604,-0.0999
-0.7398,-1.1396,-9.6319,-0.412,-2.5159,-0.0914
-0.9505,-1.087,-9.6582,-0.4405,-2.759,-0.0751
-1.3001,-1.0439,-9.5816,-0.481,-2.986,-0.0719
-1.5395,-0.9673,-9.5792,-0.5084,-3.253,-0.0653
-1.6975,-0.9936,-9.4834,-0.5593,-3.4896,-0.0762
-1.5131,-0.9792,-9.6343,-0.5902,-3.7688,-0.0682
-1.5107,-1.0846,-9.5816,-0.6302,-4.0382,-0.0506
-1.7549,-1.0319,-9.3278,-0.6614,-4.338,-0.0458
-2.0016,-1.0918,-9.0956,-0.7163,-4.7222,-0.0637
-1.8914,-0.838,-9.2105,-0.7029,-5.0367,-0.1074
-2.2505,-0.7757,-8.8657,-0.7085,-5.41,-0.1279
-2.4134,-0.7326,-8.758,-0.728,-5.9096,-0.1428
-2.6959,-0.6297,-8.5928,-0.7186,-6.2749,-0.1641
-3.4812,-0.5555,-8.1666,-0.7093,-6.6149,-0.1972
-4.1324,-0.419,-8.011,-0.7192,-7.0162,-0.2265
-4.1899,-0.5555,-7.9152,-0.7021,-7.3898,-0.2265
-4.5801,-0.5291,-7.4508,-0.6534,-7.6443,-0.2563
-4.9991,-0.4645,-7.1635,-0.6214,-7.9107,-0.3027
-5.6503,-0.4645,-6.8091,-0.5785,-8.0725,-0.3054
-7.015,-0.2729,-6.1292,-0.462,-8.2705,-0.3568
-7.4915,-0.0766,-6.2106,-0.3067,-8.388,-0.3866
-7.1706,0.012,-5.9951,-0.0168,-8.5561,-0.364
-6.6319,-0.4118,-5.0877,0.1327,-8.4447,-0.3365
-7.5369,-0.6536,-4.7645,0.0632,-8.3078,-0.3155
-8.2289,-1.0965,-4.3766,-0.114,-8.1735,-0.3016
-8.916,-1.0487,-3.8379,-0.2185,-7.8934,-0.3016
-9.663,-0.8739,-3.4093,-0.2625,-7.6104,-0.3104
-9.2751,-0.8284,-3.4644,-0.2595,-7.2331,-0.2785
-10.0173,-0.5938,-3.1867,-0.219,-6.7801,-0.2545
-10.0628,-0.5315,-3.1316,-0.1569,-6.3599,-0.2345
-10.1706,-0.498,-3.1987,-0.081,-5.8105,-0.1865
-10.6638,-0.5219,-3.1005,-0.0083,-5.3055,-0.1697
-9.8258,-0.4645,-3.1556,0.0413,-4.7793,-0.1148
-9.9503,-0.4908,-3.1173,0.045,-4.132,-0.0592
-10.3238,-0.5171,-2.8898,0.0357,-3.5861,-0.0274
-10.6686,-0.4094,-2.6695,0.0469,-3.1746,-0.0314
-9.7588,-0.3926,-2.8778,0.0938,-2.8346,-0.0133
-9.7085,-0.2251,-2.5786,0.1785,-2.3537,0.0173
-9.7947,0.0048,-2.3607,0.2356,-2.0137,0.0365
-9.3685,-0.1437,-2.4924,0.2779,-1.6963,0.057
-9.1626,-0.2059,-2.4181,0.3227,-1.3456,0.0778
-9.2392,-0.3304,-2.3655,0.3672,-1.044,0.0858
-9.1482,-0.2514,-2.2745,0.3706,-0.7853,0.1162
-9.6055,-0.3232,-2.2913,0.3352,-0.5918,0.1372
-9.4164,-0.5459,-2.4157,0.3307,-0.582,0.1063
-8.5449,-0.5195,-2.0782,0.3736,-0.5409,0.0653
-8.1499,-0.4357,-1.6879,0.3533,-0.4479,0.1045
-8.3725,-0.5291,-1.5443,0.3155,-0.4037,0.1178
-8.5928,-0.589,-1.3192,0.2238,-0.3946,0.1202
-8.983,-0.68,-1.1971,0.134,-0.4218,0.0967
-8.9543,-0.7087,-1.3551,0.0773,-0.4458,0.0746
-9.0597,-0.656,-1.4006,0.0426,-0.4362,0.0605
-9.1578,-0.6632,-1.3791,0.0019,-0.4274,0.0512
-9.3829,-0.6153,-1.312,-0.0408,-0.3944,0.0365
-9.5792,-0.5171,-1.3096,-0.0663,-0.3483,0.0192
-9.7372,-0.5363,-1.2641,-0.0826,-0.288,0.008
-9.572,-0.5052,-1.2881,-0.0842,-0.2417,-0.0021
-9.3781,-0.4214,-1.2785,-0.0711,-0.1687,-0.0048
-9.3613,-0.4334,-1.2139,-0.0624,-0.0893,-0.0032
-9.3278,-0.4932,-1.1732,-0.0584,-0.0296,0.0035
-9.2751,-0.5267,-1.1516,-0.0488,0.0171,0.0051
-9.2464,-0.5914,-1.1827,-0.0352,0.0496,0.0077
-9.1985,-0.6776,-1.1444,-0.0285,0.0717,0.0104
-9.232,-0.7135,-1.1253,-0.0288,0.0727,0.0147
-9.2727,-0.723,-1.0223,-0.0328,0.061,0.0184
-9.2751,-0.735,-0.9553,-0.0416,0.008,0.0139
-9.0549,-0.7063,-0.8332,-0.0445,-0.0301,0.0099
-9.0932,-0.7254,-0.6464,-0.0509,-0.0648,0.0077
-9.2512,-0.7207,-0.5171,-0.0597,-0.1085,0.012
-9.3853,-0.8188,-0.3903,-0.0757,-0.1788,0.0056
-9.2584,-0.9457,-0.407,-0.0906,-0.2521,-0.0035
-9.256,-0.9697,-0.3567,-0.1138,-0.2896,-0.0117
-9.3158,-0.8978,-0.2682,-0.146,-0.3475,-0.02
-9.3685,-0.8715,-0.2298,-0.1815,-0.3949,-0.025
-9.414,-0.8643,-0.2658,-0.2137,-0.4221,-0.0293
-9.5289,-0.8499,-0.2849,-0.2449,-0.4314,-0.0365
-9.6151,-0.8212,-0.3065,-0.2657,-0.4415,-0.0474
-9.572,-0.8116,-0.2969,-0.2825,-0.4386,-0.0525
-9.5888,-0.7853,-0.3041,-0.3019,-0.4146,-0.0589
-9.5648,-0.7302,-0.2969,-0.3139,-0.3845,-0.0602
-9.6223,-0.656,-0.1724,-0.3254,-0.3528,-0.0586
-9.6007,-0.7278,-0.1987,-0.3384,-0.3352,-0.0578
-9.4834,-0.68,-0.0096,-0.3301,-0.3152,-0.0634
-9.5385,-0.7183,0.1341,-0.3429,-0.2966,-0.0687
-9.5912,-0.7685,0.328,-0.3669,-0.2814,-0.0743
-9.6941,-0.7685,0.4142,-0.4,-0.2787,-0.0858
-9.6175,-0.7661,0.4334,-0.4274,-0.279,-0.0999
-9.6079,-0.7135,0.4669,-0.457,-0.2489,-0.1124
-9.5433,-0.6776,0.3065,-0.482,-0.2334,-0.1234
-9.4092,-0.6225,0.2682,-0.5017,-0.2094,-0.1346
-9.3446,-0.5411,0.3328,-0.5311,-0.2049,-0.1436
-9.5217,-0.5459,0.3855,-0.5748,-0.2142,-0.1474
-9.4858,-0.589,0.3424,-0.6033,-0.243,-0.1657
-9.56,-0.5698,0.4357,-0.6336,-0.2332,-0.1796
-9.6079,-0.6393,0.3903,-0.6667,-0.2129,-0.1828
-9.6486,-0.6105,0.3591,-0.6941,-0.1828,-0.1847
-9.6199,-0.6919,0.3496,-0.712,-0.1657,-0.1929
-9.517,-0.7135,0.3184,-0.7216,-0.1423,-0.1985
-9.56,-0.7207,0.3089,-0.7317,-0.1391,-0.2078
-9.5457,-0.7709,0.3376,-0.7432,-0.1503,-0.2286
-9.5313,-0.6847,0.4166,-0.7642,-0.1585,-0.2417
-9.4858,-0.6536,0.4405,-0.7975,-0.1732,-0.2406
-9.5409,-0.7254,0.3926,-0.8306,-0.1791,-0.238
-9.5648,-0.7614,0.4884,-0.8569,-0.2017,-0.2505
-9.5984,-0.8499,0.6464,-0.8934,-0.2278,-0.2619
-9.5122,-0.8404,0.7374,-0.9238,-0.2777,-0.2718
-9.5433,-0.7973,0.8978,-0.9622,-0.3043,-0.2825
-9.5672,-0.735,0.9218,-0.9998,-0.3467,-0.2976
-9.5792,-0.5267,1.1205,-1.0208,-0.3778,-0.3219
-9.5289,-0.4717,1.2354,-1.0717,-0.4074,-0.3296
-9.5146,-0.5148,1.1277,-1.1493,-0.4229,-0.3325
-9.505,-0.5507,1.2282,-1.2063,-0.4474,-0.3525
-9.3134,-0.565,1.3719,-1.2484,-0.4839,-0.3802
-9.1004,-0.5938,1.4796,-1.2902,-0.5028,-0.3933
-9.1315,-0.5411,1.8268,-1.3296,-0.4767,-0.392
-9.3853,-0.577,2.0686,-1.3694,-0.4391,-0.3882
-9.6606,-0.5746,2.2817,-1.4029,-0.3973,-0.3885
-9.8952,-0.6225,2.4876,-1.4472,-0.3248,-0.3829
-10.161,-0.7063,2.6408,-1.502,-0.215,-0.3656
-10.1347,-0.6943,2.7581,-1.5444,-0.126,-0.3531
-10.0437,-0.9266,2.7318,-1.5945,-0.0573,-0.3397
-10.0173,-0.9792,2.6624,-1.6657,-0.0088,-0.3381
-11.0229,-0.929,3.0454,-1.7568,0.0088,-0.3397
-9.2656,-1.7502,-1.4964,-1.9097,0.0147,-0.5545
-10.4962,-0.9361,-17.7171,-2.0283,-0.8548,-0.6587
-3.9313,0.5028,-54.8033,-1.5772,-1.1162,-0.0783
-6.7612,8.1044,-46.074,-1.2865,-1.6771,0.2923
0.826,7.9248,-24.9883,0.1154,-0.9451,0.0077
-4.13,3.7948,-8.2169,2.0925,-0.2265,0.3608
-9.3853,-5.4444,-0.0455,2.9577,-0.3477,0.0067
-11.9351,-8.3629,1.7693,2.7288,-0.421,-0.1977
-12.5121,-4.3167,2.4421,1.2465,-0.3978,0.0003
-12.9646,-1.3743,0.0455,-0.2809,-0.1106,0.1583
-12.9981,2.2984,-1.2402,-0.8119,0.0365,0.2896
-12.9981,3.2082,-1.5131,-0.6267,0.2252,0.1823
-11.6717,3.6129,-1.6424,-0.032,0.2467,-0.0203
-8.8992,2.5809,-2.1308,0.3006,0.1284,0.0584
-6.8187,1.1301,-2.2793,0.3605,-0.0959,0.0791
-5.5665,-0.4118,-1.9537,0.2867,-0.3549,0.0195
-5.8083,-1.5107,-1.3623,0.0994,-0.6379,-0.0059
-7.0581,-1.9369,-0.9122,-0.1482,-0.8255,-0.064
-8.5808,-1.7741,-1.0056,-0.3685,-0.7677,-0.1596
-9.9886,-1.4246,-1.3503,-0.4826,-0.47,-0.2393
-10.5704,-0.9505,-1.3431,-0.4477,-0.0424,-0.3006
-10.343,-0.4501,-0.8978,-0.2851,0.4261,-0.323
-9.4834,-0.2035,-0.012,-0.0629,0.8958,-0.3099
-9.4332,-0.2921,0.4286,0.13,1.287,-0.2931
-8.9878,-0.7542,0.4453,0.2342,1.3845,-0.2667
-8.5186,-1.324,0.3879,0.2742,1.3888,-0.2449
-8.6167,-1.9489,0.2921,0.2062,1.2686,-0.2236
-8.7604,-1.9154,-0.1365,0.0927,1.0962,-0.2204
-9.1866,-1.8938,-0.5722,-0.0091,0.959,-0.2121
-9.232,-1.6544,-1.1205,-0.0717,0.8623,-0.198
-9.1937,-1.4293,-1.5538,-0.1223,0.858,-0.1721
-8.8298,-1.154,-2.0662,-0.1106,0.8476,-0.1399
-8.6167,-1.0319,-2.2936,-0.0781,0.8668,-0.1039
-8.6814,-0.9433,-2.4565,-0.0464,0.826,-0.0741
-8.6431,-0.9361,-2.7054,0.0096,0.7194,-0.0392
-8.5305,-0.905,-2.7007,0.0693,0.6241,0.0005
-8.6598,-0.929,-2.5259,0.0962,0.5633,0.0293
-8.7676,-1.0032,-2.4517,0.0941,0.5244,0.0602
-8.9471,-1.0295,-2.4469,0.0999,0.5172,0.0917
-9.2727,-0.9792,-2.4421,0.1362,0.5276,0.1234
-9.4427,-0.8691,-2.2817,0.1777,0.578,0.1431
-9.6319,-0.7949,-2.3152,0.2062,0.6619,0.1545
-9.6678,-0.6488,-2.3176,0.2398,0.7738,0.1767
-9.9,-0.6369,-2.32,0.2705,0.9446,0.2022
-10.0341,-0.7542,-2.3918,0.3107,1.0416,0.2041
-9.4858,-0.814,-2.5115,0.3752,1.1325,0.1844
-8.8657,-0.7614,-2.4828,0.417,1.234,0.1895
-8.5976,-0.6393,-2.4325,0.4386,1.355,0.2145
-8.4922,-0.7614,-2.624,0.4072,1.4591,0.2478
-8.7963,-0.8452,-3.0119,0.4005,1.5948,0.2449
-8.9256,-0.747,-3.3782,0.4389,1.7565,0.2446
-9.323,-0.3041,-3.4668,0.4519,1.9809,0.3067
-9.5505,-0.2131,-3.5865,0.3704,2.2202,0.3285
-9.912,-0.6752,-3.7972,0.3579,2.5357,0.3376
-10.0149,-0.5219,-3.7804,0.4434,2.9012,0.3541
-10.4004,-0.4836,-3.9648,0.5436,3.3084,0.3714
-10.3693,-0.4812,-3.9097,0.6283,3.7062,0.3858
-10.2113,-0.4621,-3.7804,0.716,4.1749,0.4197
-10.0533,-0.3615,-3.5075,0.7693,4.673,0.4783
-10.6255,-0.6249,-3.1556,0.8545,5.0702,0.4844
-10.4483,-0.5674,-2.8467,0.9193,5.1161,0.4538
-7.6734,-0.905,-3.4381,1.0445,5.1696,0.4663
-6.5218,-1.0223,-3.9911,1.1562,5.3575,0.5169
-6.2872,-1.0798,-4.1156,1.1719,5.3367,0.5359
-6.3901,-1.1875,-3.9025,1.101,5.2371,0.5454
-6.5888,-1.2163,-4.0103,1.0147,5.1203,0.563
-6.6128,-1.3144,-4.561,0.9244,5.0092,0.5985
-6.3997,-1.2306,-5.4612,0.8452,4.8837,0.6382
-6.2848,-1.0942,-5.7748,0.7813,4.7436,0.6864
-6.3782,-1.0056,-5.6719,0.7221,4.6642,0.7048
-6.517,-0.7829,-5.7126,0.6787,4.6953,0.7107
-6.7181,-0.8164,-6.4787,0.3059,4.9157,0.9174
-8.2839,-1.6209,-6.5338,0.4431,5.0982,0.85
-7.8961,-0.6871,-6.6894,0.6182,5.2933,0.8583
-7.8961,-0.4477,-6.62,0.76,5.71,0.9366
-8.0302,-0.4166,-6.7109,0.8543,6.1486,1.0579
-8.0086,-0.4693,-6.517,1.0682,6.5441,1.0595
-7.4196,-0.4621,-6.4787,1.1788,6.9621,1.0776
-6.8785,-0.6297,-6.6511,1.2526,7.3688,1.081
-6.4691,-0.7494,-6.8809,1.2582,7.6461,1.0619
-5.5761,-0.7159,-6.7133,1.2974,7.8348,1.0088
-5.3463,-0.34,-7.0437,1.4216,7.6576,0.9942
-4.4915,-0.8835,-6.6631,1.4517,7.7122,0.9699
-4.4077,-0.9912,-7.1826,1.416,7.4697,0.9212
-4.0725,-1.2402,-7.3215,1.3038,7.1974,0.8743
-4.039,-1.3838,-7.4651,1.23,6.9941,0.8034
-3.0861,-1.1732,-7.9248,1.1946,6.1897,0.8346
-1.8364,-1.3216,-7.3957,1.0698,5.9672,0.8098
-3.2346,-1.1109,-8.5928,0.9358,5.6655,0.7136
-2.7174,-0.8021,-9.0261,0.829,5.1971,0.6699
-2.8323,-0.7925,-9.0956,0.7352,4.8872,0.6182
-2.3679,-0.7949,-8.9759,0.6323,4.5093,0.5918
-2.9784,-1.063,-9.0908,0.4799,4.2157,0.5963
-1.9465,-0.7159,-9.0333,0.4594,3.7001,0.6139
-1.3408,-0.8547,-8.6143,0.4378,3.46,0.586
-1.6712,-0.9409,-8.3414,0.3429,3.2727,0.5148
-2.8539,-0.9505,-8.5234,0.2955,3.1666,0.4588
-0.8428,-0.7661,-8.6694,0.2939,2.5452,0.5255
-0.9242,-0.8092,-8.7628,0.2659,2.2511,0.562
-0.8428,-0.6416,-8.8418,0.2771,2.0672,0.4692
-1.7813,-1.0008,-9.2823,0.142,1.9654,0.3928
-1.7957,-0.7398,-9.4308,0.117,1.6867,0.3661
-1.166,-0.6943,-9.5122,0.1151,1.4341,0.405
-1.2378,-0.7877,-9.8378,0.0834,1.2835,0.3717
-1.4317,-0.8739,-10.2663,0.0442,1.1181,0.3008
-1.4629,-0.9409,-10.4746,0.028,0.9278,0.2372
-1.3982,-1.1061,-10.7069,-0.0037,0.7277,0.2022
-1.3001,-1.1301,-10.8864,-0.0085,0.5732,0.1663
-1.3886,-1.1851,-10.8362,-0.0346,0.4639,0.1362
-1.4916,-1.1803,-10.9295,-0.0533,0.3898,0.1018
-1.5155,-1.1708,-10.9583,-0.0624,0.3032,0.0735
-1.3838,-1.2713,-10.9152,-0.0677,0.2078,0.0472
-1.3144,-1.2929,-10.7763,-0.0789,0.1194,0.0149
-1.3048,-1.2761,-10.6877,-0.0874,0.0466,-0.0152
-1.2713,-1.2498,-10.5536,-0.0997,-0.0226,-0.0285
-1.2713,-1.2833,-10.4986,-0.117,-0.0893,-0.0394
-1.3767,-1.1564,-10.501,-0.109,-0.1327,-0.0605
-1.4868,-1.1468,-10.4459,-0.1066,-0.1604,-0.0714
-1.5395,-1.0726,-10.4842,-0.1007,-0.1743,-0.0765
-1.4485,-1.1037,-10.5512,-0.109,-0.1769,-0.0725
-1.4102,-1.1157,-10.5919,-0.1098,-0.1607,-0.0754
-1.336,-1.2163,-10.6446,-0.1242,-0.1404,-0.0746
-1.1229,-1.2354,-10.6039,-0.1162,-0.1362,-0.0807
-1.0343,-1.2977,-10.6542,-0.1061,-0.1279,-0.0762
-0.9313,-1.3527,-10.6853,-0.0954,-0.1428,-0.0706
-0.8643,-1.3934,-10.6039,-0.0882,-0.1567,-0.0658
-0.8859,-1.3336,-10.6494,-0.0797,-0.174,-0.0581
-0.9744,-1.2426,-10.6039,-0.0698,-0.1964,-0.0533
-1.008,-1.1612,-10.6877,-0.0602,-0.2108,-0.0477
-1.1013,-1.1875,-10.738,-0.0525,-0.2177,-0.0466
-1.1277,-1.2186,-10.8816,-0.0482,-0.2153,-0.0485
-1.2019,-1.2641,-11.0014,-0.0525,-0.2097,-0.0482
-1.1325,-1.2019,-11.0564,-0.0456,-0.2113,-0.044
-1.1061,-1.2091,-11.1354,-0.0466,-0.2108,-0.0416
-1.0965,-1.1923,-11.0899,-0.0384,-0.2188,-0.0488
-1.0199,-1.1756,-11.0301,-0.0362,-0.2204,-0.0594
-1.0127,-1.154,-10.9607,-0.0328,-0.231,-0.0671
-0.9601,-1.1708,-10.9271,-0.028,-0.2419,-0.0746
-0.8428,-1.1181,-10.9104,-0.025,-0.2534,-0.0821
-0.6967,-1.1085,-10.7907,-0.0309,-0.2875,-0.0938
-0.6369,-1.0151,-10.7619,-0.0336,-0.3293,-0.1087
-0.6129,-0.984,-10.6614,-0.025,-0.3808,-0.1226
-0.6129,-1.0104,-10.6518,-0.0211,-0.4287,-0.133
-0.5626,-1.0127,-10.5704,-0.0218,-0.4628,-0.1447
-0.4717,-1.075,-10.4435,-0.0298,-0.5015,-0.1426
-0.316,-1.0894,-10.3046,-0.0386,-0.5537,-0.1327
-0.0766,-1.1229,-10.2496,-0.0573,-0.6419,-0.1239
0.0742,-1.1827,-10.1562,-0.0786,-0.7506,-0.1266
0.0838,-1.2139,-10.3334,-0.1045,-0.8761,-0.1274
-0.2921,-1.075,-10.4267,-0.1114,-0.9878,-0.1239
-0.7997,-0.8164,-10.2304,-0.0874,-1.0488,-0.1314
-1.2354,-0.656,-10.1801,-0.0573,-1.028,-0.1303
-1.3384,-0.7302,-10.3262,-0.0458,-0.9609,-0.1119
-1.4054,-0.6823,-10.4435,-0.0131,-0.8428,-0.1159
-1.3264,-0.838,-10.4411,0.0051,-0.7538,-0.1077
-1.0175,-0.9936,-10.4675,-0.012,-0.6944,-0.0962
-0.8164,-1.008,-10.4507,-0.0264,-0.6771,-0.1005
-0.4693,-1.0415,-10.161,-0.0525,-0.7541,-0.1119
0.2873,-1.1851,-10.1921,-0.101,-0.9257,-0.1047
1.0774,-1.494,-10.0868,-0.1737,-1.1748,-0.0943
1.4964,-1.5155,-9.9623,-0.2593,-1.4847,-0.0882
1.4988,-1.5467,-9.7516,-0.3624,-1.8852,-0.0834
1.6137,-1.4964,-9.8474,-0.4764,-2.3401,-0.0709
1.4557,-1.2689,-9.833,-0.5612,-2.7989,-0.0714
1.4078,-1.1396,-9.754,-0.636,-3.2887,-0.0605
0.8954,-1.0151,-9.6702,-0.6987,-3.7513,-0.0421
0.3496,-0.8667,-9.517,-0.7525,-4.2314,-0.0234
-0.1963,-0.759,-9.4619,-0.7922,-4.6631,-0.0173
-0.9385,-0.6943,-9.4188,-0.7986,-5.0108,-0.0144
-1.4748,-0.7063,-9.3948,-0.7981,-5.3583,-0.0192
-2.0494,-0.4381,-9.3948,-0.7466,-5.5797,-0.0051
-2.5762,-0.589,-9.1123,-0.7568,-5.7367,0.0373
-3.3088,-0.4334,-8.916,-0.7328,-5.9259,0.0245
-3.067,-0.5171,-8.7915,-0.7011,-6.0764,0.0328
-3.0287,-0.7997,-9.0118,-0.6781,-6.2203,0.0517
-3.4117,-0.8356,-8.6479,-0.659,-6.3895,0.0434
-3.5362,-0.7278,-8.4779,-0.6435,-6.5939,0.0328
-4.2473,-0.6632,-7.8697,-0.6507,-6.8033,0.0322
-4.3981,-0.5866,-7.774,-0.6531,-7.1479,-0.029
-3.9433,-0.6249,-8.0613,-0.6014,-7.3701,-0.0365
-4.6448,-0.4812,-7.6782,-0.5143,-7.5318,-0.0634
-5.4899,-0.1317,-6.7947,-0.4239,-7.7916,-0.1252
-5.8131,-0.2107,-6.7086,-0.3738,-8.0243,-0.1399
-6.4667,0.1149,-6.8546,-0.1386,-8.0624,-0.1689
-6.7684,0.3112,-5.5354,0.0634,-8.2046,-0.2174
-6.6104,-0.2322,-5.2625,0.1234,-8.1029,-0.1689
-8.0493,-0.5219,-4.6998,0.101,-7.9763,-0.1665
-7.6303,-0.8859,-4.5011,0.0005,-8.0773,-0.1684
-7.8673,-1.0918,-4.2928,-0.0325,-7.9209,-0.1346
-7.9535,-1.1109,-4.2521,-0.0328,-8.101,-0.1873
-6.7373,-0.826,-3.9863,0.0386,-8.053,-0.1729
-7.1826,-0.6105,-3.3303,-0.0218,-7.8177,-0.1639
-8.3629,-0.5004,-2.9113,-0.0898,-7.5998,-0.1631
-9.0644,-0.2969,-2.3224,-0.1516,-7.3373,-0.1127
-10.0461,-0.2394,-2.0399,-0.1937,-6.912,-0.0514
-10.8864,-0.0958,-1.8028,-0.1913,-6.3735,-0.008
-11.6382,-0.0838,-1.5682,-0.1769,-5.7303,0.0362
-12.1482,-0.0982,-1.5012,-0.1324,-4.9789,0.0909
-12.4882,-0.0215,-1.6903,-0.06,-4.1408,0.1434
-12.4331,0.067,-1.7286,0.0421,-3.2253,0.1764
-12.2631,0.1006,-1.7406,0.1474,-2.2476,0.2124
-12.39,0.1987,-1.6903,0.2817,-1.2281,0.2662
-13.307,0.4118,-1.4269,0.4205,-0.377,0.2971
-12.6366,0.3759,-1.6783,0.5177,0.1005,0.2785
-10.5201,-0.146,-1.9369,0.6067,0.5756,0.2377
-9.2201,-0.3136,-1.9106,0.6981,0.9603,0.2236
-8.6,-0.2897,-2.1404,0.7917,1.1756,0.2286
-8.1259,-0.2107,-1.9441,0.8255,1.2271,0.2129
-7.8386,-0.2729,-1.8531,0.7496,1.1735,0.1633
-7.9655,-0.4956,-2.0566,0.6611,1.0299,0.1162
-7.8793,-0.5195,-2.0949,0.6344,0.676,0.0496
-6.6822,-0.5674,-2.0279,0.6038,0.3198,0.0352
-6.5888,-0.5866,-1.8938,0.4479,0.0501,0.0898
-7.1467,-0.6967,-1.8603,0.2854,-0.3142,0.0911
-7.6471,-0.6201,-1.7597,0.1242,-0.611,0.0943
-8.509,-0.5028,-1.5802,-0.0091,-0.8042,0.0914
-9.2895,-0.4573,-1.5419,-0.0839,-0.8692,0.0805
-9.9575,-0.3879,-1.5179,-0.11,-0.8247,0.0706
-10.2855,-0.4094,-1.4413,-0.1167,-0.6704,0.0695
-10.5177,-0.3759,-1.2881,-0.1223,-0.482,0.0703
-10.7835,-0.4262,-1.1253,-0.118,-0.2753,0.0658
-10.343,-0.4238,-1.1995,-0.0695,-0.1018,0.0528
-10.0197,-0.3136,-1.1756,-0.0258,0.1074,0.0413
-9.7995,-0.3352,-1.087,0.0144,0.2691,0.0258
-9.5936,-0.3687,-1.1947,0.048,0.4061,0.0104
-9.3853,-0.3759,-1.1396,0.0741,0.51,-0.0032
-9.2775,-0.4741,-1.0463,0.093,0.5798,-0.0123
-9.1411,-0.4788,-1.0415,0.1079,0.5809,-0.0181
-8.9376,-0.644,-1.1253,0.1135,0.518,-0.028
-8.6383,-0.644,-1.245,0.1092,0.4378,-0.0338
-8.7029,-0.644,-1.3168,0.0885,0.3277,-0.0325
-8.5928,-0.6632,-1.4293,0.0602,0.1676,-0.0317
-8.7053,-0.644,-1.5131,0.0266,0.0424,-0.0264
-9.0573,-0.6057,-1.6376,-0.0056,-0.0767,-0.0192
-9.1818,-0.6081,-1.6616,-0.0341,-0.1857,-0.0104
-9.3206,-0.5052,-1.6544,-0.057,-0.2553,-0.0035
-9.4451,-0.4166,-1.5658,-0.0687,-0.2851,0.0035
-9.5984,-0.3448,-1.3791,-0.0698,-0.2939,0.008
-10.0197,-0.3831,-1.2306,-0.0818,-0.3046,0.0043
-9.5984,-0.5243,-1.1301,-0.0847,-0.3976,-0.0144
-9.2273,-0.4453,-0.9481,-0.0773,-0.3893,-0.0208
-9.5409,-0.431,-0.5986,-0.1124,-0.4269,-0.0226
-9.4978,-0.5124,-0.4142,-0.1431,-0.4557,-0.028
-9.6774,-0.5363,-0.565,-0.1785,-0.4431,-0.0346
-9.809,-0.565,-0.498,-0.2092,-0.4351,-0.0469
-9.7827,-0.577,-0.5124,-0.2292,-0.4178,-0.0578
-9.675,-0.5219,-0.6033,-0.2515,-0.3946,-0.0661
-9.7205,-0.4645,-0.6105,-0.275,-0.3616,-0.0797
-9.754,-0.4621,-0.565,-0.2907,-0.3443,-0.0981
-9.6247,-0.4501,-0.6225,-0.2934,-0.3147,-0.113
-9.7276,-0.4932,-0.5531,-0.3006,-0.2726,-0.1239
-9.8234,-0.4836,-0.6057,-0.3104,-0.2342,-0.1375
-9.8162,-0.4549,-0.7278,-0.3182,-0.1871,-0.1463
-9.7396,-0.4381,-0.7757,-0.3299,-0.1359,-0.1561
-9.651,-0.3567,-0.7685,-0.332,-0.0922,-0.1609
-9.56,-0.3567,-0.7374,-0.3272,-0.0925,-0.1692
-9.3757,-0.3879,-0.7063,-0.319,-0.1234,-0.1831
-9.1698,-0.5148,-0.6656,-0.3251,-0.166,-0.1897
-9.0884,-0.6177,-0.5507,-0.34,-0.1927,-0.1913
-9.2512,-0.6752,-0.4477,-0.3736,-0.2388,-0.1911
-9.3063,-0.6369,-0.4501,-0.421,-0.2814,-0.1881
-9.4188,-0.6464,-0.4381,-0.462,-0.3038,-0.1857
-9.6151,-0.6369,-0.4118,-0.4978,-0.3301,-0.1855
-9.7061,-0.644,-0.4741,-0.5287,-0.3485,-0.1932
-9.833,-0.5986,-0.4022,-0.5596,-0.348,-0.2036
-9.8737,-0.5195,-0.3903,-0.5883,-0.3355,-0.2166
-9.8881,-0.4334,-0.3711,-0.6118,-0.303,-0.2249
-9.8378,-0.3831,-0.4286,-0.6251,-0.2798,-0.2329
-9.6007,-0.395,-0.5291,-0.6278,-0.259,-0.2449
-9.5696,-0.4262,-0.431,-0.6371,-0.2198,-0.243
-9.6606,-0.4238,-0.5435,-0.6544,-0.1929,-0.2475
-9.6127,-0.4717,-0.6321,-0.6747,-0.1609,-0.2526
-9.73,-0.3807,-0.7829,-0.6925,-0.1167,-0.2577
-9.6151,-0.3903,-0.814,-0.6968,-0.1124,-0.2667
-9.3709,-0.3591,-0.8356,-0.6917,-0.0919,-0.2769
-9.2871,-0.3759,-0.7949,-0.6795,-0.0783,-0.2782
-9.2967,-0.4429,-0.7254,-0.6712,-0.0911,-0.2787
-9.2057,-0.5243,-0.7302,-0.6736,-0.0978,-0.2793
-9.2919,-0.5387,-0.5219,-0.6779,-0.0946,-0.2771
-9.3182,-0.589,-0.3543,-0.6869,-0.1114,-0.275
-9.2512,-0.6369,-0.1676,-0.6923,-0.1188,-0.2777
-9.3302,-0.6416,0.067,-0.6989,-0.1194,-0.2811
-9.3685,-0.6536,0.1724,-0.7144,-0.1442,-0.279
-9.2536,-0.7063,0.2131,-0.7357,-0.2022,-0.284
-9.0549,-0.6656,0.2849,-0.7506,-0.2689,-0.2966
-8.9783,-0.577,0.4669,-0.7693,-0.3352,-0.3062
-9.0788,-0.5722,0.7614,-0.7815,-0.4032,-0.3171
-9.1075,-0.6297,0.8452,-0.8226,-0.4575,-0.319
-9.2009,-0.6488,1.0463,-0.862,-0.5057,-0.3267
-9.0668,-0.6919,1.0702,-0.9182,-0.5473,-0.3269
-9.0022,-0.7518,0.9553,-0.996,-0.5478,-0.3102
-9.0309,-0.7015,0.589,-1.0552,-0.5545,-0.3043
-9.0214,-0.7183,0.3639,-1.1146,-0.5652,-0.304
-9.0764,-0.6656,0.0455,-1.1437,-0.5734,-0.3123
-9.2632,-0.6416,-0.1269,-1.1762,-0.571,-0.3174
-9.3733,-0.644,-0.0144,-1.1932,-0.5662,-0.3397
-9.2895,-0.577,-0.012,-1.2025,-0.5175,-0.3643
-9.2512,-0.4094,0.2179,-1.2263,-0.4213,-0.3675
-9.3278,-0.3639,0.6536,-1.2574,-0.3246,-0.3736
-9.1291,-0.3663,0.9768,-1.2854,-0.2321,-0.3845
-9.2991,-0.3663,1.5467,-1.3288,-0.1625,-0.392
-9.4834,-0.4214,1.9345,-1.3917,-0.1423,-0.3978
-9.6031,-0.4717,2.1907,-1.4586,-0.1071,-0.405
-9.8282,-0.6153,2.1596,-1.5628,-0.041,-0.4045
-10.0245,0.1341,-0.723,-1.655,-0.0069,-0.2489
-11.9375,0.2466,-18.2702,-2.0904,-0.7035,-0.6835
-6.3494,-0.4525,-45.813,-1.4522,-1.7797,-0.3837
-3.7421,6.9168,-38.5562,-0.8687,-1.6683,-0.1599
-4.0342,8.4084,-18.4784,-0.1665,-1.4024,0.0671
-7.3502,3.7134,-7.4412,1.4029,-0.4866,0.283
-10.1801,-4.4341,-0.2945,2.4432,0.1111,-0.0839
-9.6582,-8.4659,-0.0048,2.4323,0.284,-0.2403
-9.1339,-5.6312,0.7829,1.5018,0.0221,-0.041
-10.1083,-2.3535,-1.8842,-0.1053,-0.1029,0.0512
-9.8521,1.2546,-3.213,-0.6651,-0.1823,0.1631
-10.9128,3.2106,-3.5745,-0.4775,-0.0179,0.2044
-10.6805,3.3447,-2.9473,0.0317,0.0301,0.0719
-8.1954,1.9369,-1.9561,0.3904,0.029,0.0187
-6.1387,0.4118,-0.9074,0.4874,-0.1212,0.1079
-5.7269,-0.6273,-0.4908,0.3411,-0.4247,0.1079
-6.8115,-1.2737,-0.395,0.117,-0.7775,0.0112
-8.0278,-1.4102,-0.3256,-0.0725,-1.0014,-0.0741
-9.0357,-1.6352,-0.2227,-0.2092,-0.9998,-0.1298
-9.6822,-1.7693,-0.2849,-0.2598,-0.7967,-0.2025
-10.0437,-1.6712,-0.3112,-0.2763,-0.4604,-0.2667
-10.094,-1.2761,-0.3112,-0.2731,-0.0626,-0.2947
-9.5744,-0.6752,-0.1939,-0.2041,0.3333,-0.2697
-9.2775,-0.3807,0.0982,-0.1119,0.7035,-0.2417
-9.3589,-0.4884,0.182,-0.045,0.8713,-0.2366
-9.0908,-0.9002,0.1844,-0.0312,0.8434,-0.2385
-8.9423,-1.4054,-0.1532,-0.0655,0.6965,-0.2526
-8.916,-1.7406,-0.6273,-0.1588,0.518,-0.2731
-9.0333,-1.7909,-1.0965,-0.263,0.3808,-0.2846
-9.0501,-1.5299,-1.5969,-0.3206,0.2939,-0.2745
-8.679,-1.2019,-2.0039,-0.3624,0.2577,-0.2475
-8.6191,-0.8906,-2.5235,-0.3587,0.2356,-0.2094
-8.4132,-0.5914,-2.8587,-0.2987,0.1753,-0.1745
-8.2696,-0.5291,-2.9209,-0.2169,0.1434,-0.1314
-8.4635,-0.6728,-2.8898,-0.1479,0.1082,-0.0943
-8.7819,-0.8188,-2.8323,-0.0959,0.1069,-0.073
-9.0501,-0.9697,-2.9712,-0.065,0.146,-0.0349
-9.493,-0.8787,-2.6839,-0.081,0.2332,0.0067
-9.5409,-0.7494,-2.8778,-0.1215,0.3445,-0.0171
-9.5146,-0.5411,-2.6217,-0.0608,0.4293,0.0171
-9.2584,-0.2634,-2.4804,0.0893,0.5385,0.0576
-9.2632,-0.3184,-2.3367,0.2321,0.6749,0.0933
-9.1554,-0.5028,-2.1428,0.332,0.7954,0.0957
-8.9112,-0.8475,-1.9154,0.3656,0.9174,0.1103
-8.8466,-1.0056,-1.8148,0.3635,1.0413,0.1647
-9.1866,-1.0558,-1.9178,0.3525,1.2049,0.2382
-9.4763,-0.9385,-1.834,0.3754,1.433,0.2702
-9.7588,-0.9242,-2.1261,0.3608,1.7712,0.3312
-10.0006,-1.0367,-2.557,0.4647,2.2154,0.3328
-9.9096,-0.3903,-2.5977,0.5399,2.7598,0.4032
-9.9982,-0.3232,-2.8994,0.5324,3.3585,0.4831
-10.4004,-0.4645,-3.3734,0.562,3.9999,0.5332
-10.5824,-0.6153,-3.6799,0.6904,4.5387,0.5255
-10.8314,-0.3735,-3.7038,0.8593,4.9506,0.5228
-9.9886,-0.3256,-3.8068,1.0046,5.1907,0.5428
-8.6766,-0.4549,-3.4069,1.1594,5.4273,0.5814
-7.9942,-0.6728,-3.4165,1.2804,5.673,0.6201
-7.5202,-0.7853,-3.9409,1.3169,5.8009,0.6728
-7.446,-0.9074,-4.1084,1.2662,5.8558,0.7189
-7.9607,-0.8978,-3.948,1.1676,5.8305,0.7171
-7.604,-0.8428,-4.2784,1.0611,5.8065,0.7221
-7.0916,-0.747,-4.7333,1.0011,5.9085,0.7941
-6.6224,-0.5866,-5.2553,0.9864,6.0546,0.8665
-6.5003,-0.5962,-5.442,0.9792,6.1569,0.919
-6.1387,-0.5028,-5.3893,0.9771,6.1945,0.9371
-5.5378,-0.3998,-5.8419,0.6073,6.3482,1.1333
-6.3566,-1.4581,-6.0406,0.7197,6.3948,1.0648
-5.4875,-0.7709,-6.0621,0.8084,6.3655,1.0776
-5.3367,-0.6081,-6.2345,0.8463,6.4814,1.1133
-5.6312,-0.6345,-6.2345,0.8394,6.5827,1.1399
-5.9448,-0.51,-6.3853,0.8881,6.6365,1.1199
-6.098,-0.3903,-6.608,0.963,6.6802,1.1261
-6.0621,-0.4405,-6.4596,1.0475,6.7308,1.1445
-6.0501,-0.3112,-6.4404,1.19,6.8028,1.1151
-6.189,-0.3663,-6.9983,1.2396,6.8076,1.0813
-5.9161,-0.5746,-7.4364,1.2361,6.7927,1.0557
-6.3494,-0.6728,-7.4795,1.2617,6.8758,1.0142
-4.5274,-0.5315,-7.2257,1.254,6.5158,1.0163
-5.1284,-0.8212,-7.4101,1.2063,6.5814,0.9843
-4.9823,-0.6057,-8.1283,1.0842,6.3714,0.9691
-4.6591,-0.656,-8.3246,0.9792,6.1374,0.93
-4.2282,-0.4956,-8.691,0.9097,5.8784,0.8796
-3.9552,-0.3543,-8.8466,0.8721,5.7388,0.8159
-3.3447,-0.3496,-9.2967,0.9001,4.9256,0.8625
-2.2673,-0.5171,-8.6646,0.8223,4.5514,0.8276
-3.6488,-0.6464,-9.1578,0.7176,4.2821,0.729
-3.4524,-0.5387,-9.1387,0.6169,3.7699,0.6462
-3.9576,-1.1085,-9.3422,0.4365,3.5117,0.6451
-3.6871,-0.4549,-9.4332,0.384,3.0923,0.6363
-3.1987,-0.5219,-9.1746,0.3288,2.7776,0.631
-3.3375,-0.7374,-9.3374,0.2148,2.5317,0.5681
-2.818,-0.8404,-9.3901,0.114,2.2156,0.5143
-3.9049,-0.6704,-9.5337,0.1124,1.9593,0.4666
-2.1069,-1.0104,-9.6199,0.0402,1.4186,0.5191
-1.7071,-0.9122,-9.3302,0.0389,1.0754,0.4692
-2.1955,-0.8212,-9.2536,0.0131,0.8311,0.3714
-2.794,-0.9792,-9.3134,-0.073,0.595,0.3155
-3.2968,-0.6464,-9.3374,-0.0714,0.3701,0.2697
-3.4931,-0.5171,-9.493,-0.0703,0.2409,0.2699
-3.5865,-0.5459,-9.7899,-0.0648,0.1069,0.2782
-3.6129,-0.6895,-9.8186,-0.0815,0.0474,0.2526
-3.6464,-0.5483,-9.9934,-0.0637,0.0413,0.1972
-3.9025,-0.656,-9.9886,-0.0794,0.1159,0.1593
-4.0079,-0.5938,-10.1897,-0.0616,0.1921,0.1252
-4.027,-0.5794,-10.307,-0.0338,0.2867,0.0994
-3.9672,-0.6201,-10.4507,0.0053,0.3776,0.0674
-3.8786,-0.7207,-10.5441,0.0333,0.4415,0.032
-3.6033,-0.9242,-10.6853,0.0285,0.4943,-0.0021
-3.4572,-0.8811,-10.7835,0.0314,0.5169,-0.0336
-3.225,-0.9744,-10.7452,0.0109,0.5201,-0.0671
-2.964,-0.8763,-10.8002,0.0053,0.498,-0.105
-2.7438,-0.9266,-10.7332,0.0021,0.4458,-0.1266
-2.4852,-1.0199,-10.6877,-0.0011,0.3754,-0.1367
-2.4756,-1.0175,-10.7045,-0.0075,0.311,-0.1524
-2.4972,-0.9649,-10.6662,-0.025,0.2521,-0.1668
-2.5905,-0.8547,-10.7356,-0.0333,0.2142,-0.1751
-2.6001,-0.8092,-10.7404,-0.0336,0.1863,-0.174
-2.6169,-0.8499,-10.7571,-0.0346,0.1692,-0.1743
-2.5857,-0.9266,-10.8098,-0.0381,0.1529,-0.1783
-2.4995,-0.996,-10.8457,-0.0384,0.1426,-0.1857
-2.4588,-1.0247,-10.9247,-0.032,0.137,-0.1863
-2.3966,-1.0295,-10.7835,-0.0256,0.13,-0.1857
-2.332,-1.0032,-10.7284,-0.0221,0.125,-0.1847
-2.3439,-0.8906,-10.6877,-0.0139,0.1378,-0.1863
-2.3224,-0.9002,-10.6398,-0.0021,0.1551,-0.1879
-2.2649,-0.8404,-10.6734,0.0061,0.1897,-0.1903
-2.0853,-0.9074,-10.6614,0.0091,0.2308,-0.1943
-1.8986,-0.9002,-10.6326,0.0195,0.2662,-0.1951
-1.8124,-0.9026,-10.6087,0.0261,0.2875,-0.1951
-1.6879,-0.893,-10.6326,0.0256,0.2915,-0.1964
-1.5586,-0.9337,-10.5824,0.0309,0.2963,-0.1961
-1.4485,-0.9146,-10.5417,0.0373,0.2769,-0.1953
-1.3312,-0.8835,-10.4675,0.0496,0.2491,-0.1948
-1.2186,-0.8954,-10.3621,0.057,0.2121,-0.1948
-1.0846,-0.917,-10.2927,0.053,0.1711,-0.1993
-0.9888,-0.917,-10.2137,0.0493,0.1234,-0.1985
-0.9577,-0.8859,-10.228,0.0448,0.0594,-0.1932
-0.8691,-0.8643,-10.2137,0.0504,-0.004,-0.1908
-0.8571,-0.8643,-10.1969,0.0485,-0.0727,-0.1988
-0.8978,-0.8906,-10.1418,0.0445,-0.1306,-0.2057
-0.8404,-0.9864,-10.0868,0.0373,-0.1775,-0.2052
-0.7901,-0.984,-10.149,0.0344,-0.2105,-0.1988
-0.7422,-1.0104,-10.1131,0.0266,-0.2478,-0.1921
-0.7685,-0.9577,-10.1251,0.0141,-0.284,-0.1855
-0.7757,-0.9337,-10.1969,0.0051,-0.3195,-0.1788
-0.8619,-0.8763,-10.2113,0.0088,-0.3262,-0.1708
-1.0606,-0.7973,-10.2256,0.0131,-0.3222,-0.1647
-1.1468,-0.7901,-10.1801,0.0192,-0.2856,-0.1487
-1.075,-0.7877,-10.1155,0.0248,-0.2361,-0.1234
-0.8475,-0.9026,-10.2137,0.0282,-0.1945,-0.097
-0.6919,-0.9313,-10.1682,0.024,-0.1876,-0.0759
-0.5794,-0.9505,-10.0461,0.0136,-0.2193,-0.0661
-0.4046,-0.9984,-10.0676,0.0003,-0.2761,-0.0538
-0.1987,-1.008,-10.1083,-0.0187,-0.3523,-0.04
0.0718,-1.087,-10.1562,-0.0464,-0.4666,-0.0253
0.3639,-1.1827,-9.9671,-0.0786,-0.6259,-0.0069
0.5339,-1.1349,-9.809,-0.1194,-0.8383,0.0067
0.6153,-1.2234,-9.7971,-0.1676,-1.0874,0.0101
0.6656,-1.2474,-9.6965,-0.2214,-1.3579,0.0088
0.6919,-1.1756,-9.7133,-0.2787,-1.6409,0.0155
0.6369,-1.1396,-9.7109,-0.3472,-1.9433,0.0282
0.6009,-1.087,-9.7707,-0.4101,-2.2553,0.0442
0.4334,-0.9553,-9.8234,-0.4575,-2.5562,0.0608
0.1604,-0.9242,-9.7612,-0.5217,-2.8594,0.0839
-0.1413,-0.7159,-9.6247,-0.5737,-3.1744,0.0895
-0.2514,-0.7111,-9.7229,-0.623,-3.488,0.1058
-0.4621,-0.5986,-9.8258,-0.6344,-3.8077,0.1263
-0.8643,-0.5243,-9.5505,-0.6534,-4.1086,0.1322
-1.3719,-0.4094,-9.323,-0.6654,-4.379,0.1287
-1.98,-0.2921,-8.9088,-0.6715,-4.6314,0.1279
-1.9848,-0.407,-8.7795,-0.6933,-4.9717,0.1439
-1.2186,-0.5866,-9.3087,-0.6877,-5.3117,0.1844
-1.2689,-0.7494,-9.2512,-0.7085,-5.6527,0.1998
-1.7166,-0.6129,-8.9639,-0.7392,-6.058,0.154
-2.4253,-0.4094,-8.5042,-0.7642,-6.5267,0.1226
-2.885,-0.2322,-8.1882,-0.7615,-7.013,0.093
-3.1101,-0.1125,-8.2839,-0.7123,-7.3546,0.0879
-4.2114,0.158,-7.8051,-0.6352,-7.5531,0.0493
-5.4348,0.2418,-7.1347,-0.5833,-7.8263,0.004
-5.3822,0.1963,-7.1443,-0.5215,-8.0477,0.0125
-6.1316,0.0527,-7.2305,-0.4072,-8.0813,-0.0003
-7.3119,0.3687,-6.7109,-0.2193,-8.1628,-0.0536
-6.2704,0.2418,-6.3351,-0.053,-8.0879,-0.0133
-7.4005,-0.1077,-5.6767,-0.0272,-7.6664,0.0096
-8.3462,-0.3807,-5.3846,-0.1018,-7.3088,0.0165
-8.9304,-0.6416,-5.193,-0.1929,-6.936,0.0424
-9.5816,-0.5171,-5.2361,-0.2137,-6.5984,0.0608
-9.2105,-0.3256,-5.3008,-0.1537,-6.471,0.0674
-7.7812,-0.1891,-5.5258,-0.0341,-6.1937,0.0949
-8.0685,0.0599,-5.0087,0.053,-5.8454,0.0826
-8.4348,0.1101,-4.4915,0.0858,-5.5683,0.0602
-8.9376,0.1245,-4.1348,0.1108,-5.2189,0.0661
-9.6414,0.067,-3.7302,0.1111,-4.8973,0.0882
-9.5553,0.0646,-3.62,0.1303,-4.5752,0.1087
-9.6845,0.1221,-3.2777,0.1591,-4.1603,0.1234
-10.41,0.1125,-2.8898,0.1428,-3.7771,0.1351
-10.422,0.0479,-2.9377,0.1428,-3.5999,0.1239
-9.493,0.0263,-2.9832,0.2174,-3.3092,0.1354
-9.177,0.0814,-3.055,0.2617,-2.9116,0.1303
-9.5816,0.1125,-2.8252,0.2705,-2.5903,0.1436
-9.9671,0.1197,-2.5019,0.2502,-2.4373,0.1498
-9.1698,-0.1149,-2.6001,0.2475,-2.3001,0.1359
-9.2416,0.0048,-2.2936,0.2856,-2.0707,0.145
-9.6654,0.0527,-2.0949,0.2718,-1.9606,0.1593
-9.8928,-0.0455,-1.9321,0.2361,-1.958,0.1236
-9.0525,-0.158,-2.1213,0.2092,-1.9204,0.0741
-9.0094,-0.17,-1.968,0.1977,-1.7568,0.085
-9.1698,-0.1293,-1.8531,0.1284,-1.6425,0.1164
-9.7037,0.0886,-1.8531,0.0938,-1.5836,0.0893
-9.3565,-0.1101,-1.889,0.0176,-1.6561,0.0663
-8.9615,-0.2729,-1.822,0.0168,-1.5644,0.0426
-9.5481,-0.3136,-1.5443,0.0354,-1.5575,0.0304
-8.8945,-0.5315,-1.6065,0.041,-1.6523,-0.0117
-8.4755,-0.5052,-1.2522,0.0592,-1.6363,-0.0322
-8.7891,-0.3567,-0.9361,-0.0141,-1.6201,-0.0242
-9.1698,-0.2394,-0.7781,-0.1023,-1.6385,-0.0136
-9.5505,-0.2777,-0.6656,-0.1911,-1.6206,-0.0136
-9.7827,-0.2251,-0.6416,-0.235,-1.5215,-0.0234
-10.173,-0.1317,-0.6393,-0.234,-1.343,-0.029
-10.386,-0.0886,-0.6464,-0.1945,-1.1423,-0.0245
-10.6159,-0.0982,-0.5866,-0.1484,-0.8969,-0.0168
-10.3932,-0.1748,-0.6105,-0.1031,-0.7568,-0.0229
-9.7851,-0.1748,-0.5626,-0.0549,-0.591,-0.0354
-9.8234,-0.1772,-0.2705,-0.0405,-0.4218,-0.0293
-10.0006,-0.1125,-0.3112,-0.0272,-0.3123,-0.0234
-9.9886,-0.1053,-0.2993,-0.0032,-0.2238,-0.0213
-9.8833,-0.158,-0.2945,0.0125,-0.0957,-0.0277
-9.8641,-0.1341,-0.2777,0.0384,0.0184,-0.0213
-9.845,-0.2059,-0.2466,0.0565,0.0754,-0.0149
-9.7875,-0.3065,-0.2251,0.0594,0.1354,-0.0195
-9.7803,-0.3615,-0.261,0.0578,0.1825,-0.0176
-9.8737,-0.3376,-0.328,0.0522,0.203,-0.0117
-9.9766,-0.4405,-0.3065,0.0322,0.1394,-0.0179
-9.2177,-0.5028,-0.4956,0.0037,-0.0128,-0.037
-8.9567,-0.3687,-0.4477,-0.0402,-0.093,-0.0717
-9.0094,-0.3591,-0.3376,-0.0943,-0.2038,-0.0626
-9.2249,-0.3352,-0.3136,-0.1268,-0.3152,-0.0584
-9.5002,-0.2705,-0.2945,-0.1511,-0.3685,-0.0714
-9.7133,-0.2274,-0.1221,-0.1767,-0.384,-0.0813
-9.7683,-0.2682,-0.1053,-0.1945,-0.3685,-0.0879
-9.9623,-0.2322,-0.0575,-0.2166,-0.2976,-0.0989
-10.1682,-0.146,-0.0215,-0.2206,-0.2188,-0.1092
-10.2232,-0.0718,0.0646,-0.2172,-0.146,-0.1159
-10.1299,-0.1604,0.1125,-0.218,-0.0951,-0.1266
-9.7588,-0.2322,0.1006,-0.2137,-0.0645,-0.1362
-9.6869,-0.2418,0.1437,-0.2334,-0.0298,-0.145
-9.6654,-0.2562,0.2059,-0.2563,-0.0155,-0.1524
-9.6869,-0.2466,0.0742,-0.2798,0.0061,-0.1607
-9.7564,-0.3136,0.1173,-0.3075,0.0333,-0.1727
-9.7085,-0.2849,0.0263,-0.3246,0.0517,-0.1817
-9.6319,-0.3256,-0.0431,-0.3395,0.049,-0.1927
-9.584,-0.2418,-0.1053,-0.3675,0.0373,-0.2049
-9.6103,-0.2466,0.0072,-0.3976,0.0008,-0.2132
-9.4379,-0.2346,0.0575,-0.4159,-0.0573,-0.2236
-9.4212,-0.2921,0.1796,-0.4335,-0.0679,-0.2316
-9.5193,-0.3424,0.2634,-0.4514,-0.081,-0.2385
-9.5624,-0.3711,0.2274,-0.473,-0.089,-0.2481
-9.5481,-0.4118,0.2011,-0.5047,-0.1132,-0.2579
-9.4786,-0.407,0.1915,-0.5284,-0.1458,-0.2686
-9.3637,-0.4477,0.0982,-0.55,-0.1817,-0.2819
-9.3422,-0.4262,0.0575,-0.5716,-0.2006,-0.2843
-9.4571,-0.4214,-0.0168,-0.6051,-0.2172,-0.2745
-9.5553,-0.4286,-0.1508,-0.6371,-0.2276,-0.2691
-9.5433,-0.3615,-0.1796,-0.6571,-0.2212,-0.2699
-9.5864,-0.3639,-0.1748,-0.6686,-0.1993,-0.2731
-9.7157,-0.34,-0.0982,-0.6792,-0.174,-0.2777
-9.6965,-0.3615,-0.0551,-0.6757,-0.158,-0.2848
-9.6678,-0.3974,0.1939,-0.6744,-0.134,-0.2896
-9.5744,-0.5004,0.328,-0.6805,-0.1346,-0.295
-9.4643,-0.6153,0.4286,-0.6925,-0.1359,-0.2974
-9.5385,-0.6345,0.5411,-0.7099,-0.1266,-0.3043
-9.5074,-0.6776,0.5411,-0.7437,-0.1274,-0.315
-9.5313,-0.6632,0.5363,-0.7757,-0.1148,-0.3246
-9.4236,-0.6847,0.51,-0.8084,-0.1138,-0.3275
-9.2703,-0.6081,0.395,-0.8271,-0.1066,-0.332
-9.1794,-0.5339,0.4429,-0.8497,-0.1143,-0.3325
-9.1363,-0.589,0.4501,-0.8692,-0.1508,-0.3368
-9.1387,-0.5938,0.4693,-0.8889,-0.1801,-0.3459
-9.2296,-0.6009,0.5483,-0.9238,-0.21,-0.3512
-9.3541,-0.6536,0.7015,-0.9627,-0.239,-0.3571
-9.3494,-0.6177,0.6225,-1.0072,-0.2691,-0.3645
-9.2823,-0.5578,0.5866,-1.0488,-0.291,-0.3712
-9.2416,-0.5531,0.6081,-1.0826,-0.3102,-0.3802
-9.1794,-0.5914,0.8404,-1.1106,-0.3371,-0.3928
-9.1075,-0.6153,1.0008,-1.129,-0.3421,-0.4053
-9.2105,-0.5531,1.2402,-1.1511,-0.3331,-0.4135
-9.1267,-0.5938,1.3024,-1.1876,-0.3368,-0.4181
-9.1099,-0.5938,1.4317,-1.2191,-0.3168,-0.4189
-9.2033,-0.6177,1.8771,-1.25,-0.3307,-0.4277
-9.2081,-0.6153,2.083,-1.2817,-0.3595,-0.4391
-9.2608,-0.5459,2.2458,-1.3091,-0.373,-0.4453
-9.323,-0.5028,2.636,-1.3387,-0.4032,-0.4439
-9.2009,-0.4764,2.8563,-1.3805,-0.4485,-0.4533
-9.232,-0.5842,2.9832,-1.4264,-0.4799,-0.4732
-9.4715,-0.6871,3.4931,-1.4965,-0.5185,-0.486
-9.6295,-0.7542,3.6966,-1.5913,-0.5468,-0.4839
-9.8713,-0.9313,4.889,-1.7182,-0.582,-0.5055
-13.441,-2.1332,3.0765,-1.7869,-0.5945,-0.748
-4.8076,-1.506,-16.8169,-1.8882,-1.4845,-0.9681
-6.6319,3.1915,-50.7762,-1.6033,-1.0677,0.5361
-4.8602,7.6064,-45.1546,-1.2662,-2.1298,-0.0163
2.4469,7.4531,-25.0864,0.3179,-1.5511,-0.2891
-4.9488,2.7533,-6.5769,2.023,-1.1229,0.21
-10.9008,-4.5107,1.1349,2.5905,-1.0816,-0.0069
-15.5049,-7.8338,3.96,2.3968,-0.8364,-0.2571
-15.7874,-4.1803,4.8435,0.9915,-0.4847,-0.1673
-14.7794,-2.0231,2.3367,-0.3965,0.0578,0.0037
-13.3525,1.4772,0.723,-0.7424,0.3072,0.0943
-11.9207,3.4165,-1.0247,-0.5753,0.5473,0.036
-10.1131,3.9025,-2.2242,-0.1596,0.6227,-0.0424
-7.9176,2.8946,-2.1955,0.19,0.4644,-0.0565
-6.371,1.403,-1.8675,0.3416,0.1447,-0.0701
-5.1475,-0.1628,-1.1133,0.3096,-0.1799,-0.0608
-5.0374,-1.3288,-0.2801,0.0986,-0.4143,-0.0221
-6.2034,-1.5897,0.2322,-0.1322,-0.571,-0.0336
-7.6974,-1.482,0.249,-0.3357,-0.5572,-0.0941
-9.0836,-1.4293,0.1604,-0.4706,-0.344,-0.1812
-9.912,-1.1468,0.1149,-0.4823,0.0016,-0.2627
-9.8545,-0.972,0.1341,-0.3981,0.4234,-0.2936
-9.2464,-0.5052,0.3017,-0.2252,0.8487,-0.2971
-8.6143,-0.5339,0.1891,-0.0544,1.1879,-0.2667
-8.0469,-0.7949,0.1125,0.0594,1.3272,-0.2257
-7.7524,-1.2665,0.0622,0.06,1.2969,-0.2014
-7.6543,-1.4413,-0.2179,0.0218,1.158,-0.1865
-8.0086,-1.6328,-0.4477,-0.0376,1.0014,-0.1719
-8.3222,-1.5227,-0.589,-0.0573,0.8783,-0.1551
-8.3079,-1.4629,-0.68,-0.0618,0.7925,-0.1244
-8.1666,-1.2067,-0.7326,-0.0442,0.716,-0.0874
-8.0493,-1.2258,-0.8811,-0.0392,0.6416,-0.0474
-8.0924,-1.0894,-1.0511,-0.0266,0.5652,-0.0165
-8.3462,-0.9553,-1.3024,-0.0088,0.4954,0.0173
-8.5928,-1.0415,-1.5203,0.0128,0.465,0.0544
-8.7245,-1.1277,-1.8196,0.036,0.4612,0.1021
-8.8442,-1.1396,-1.9752,0.0378,0.5172,0.1332
-9.0668,-1.1372,-2.1261,0.0349,0.567,0.1609
-9.177,-1.1516,-2.2841,0.0389,0.607,0.182
-9.0644,-1.0702,-2.6911,0.0687,0.6472,0.1956
-8.8514,-1.0008,-3.0167,0.0959,0.7266,0.2025
-8.7053,-0.8811,-3.2633,0.1156,0.8167,0.2113
-8.5593,-0.68,-3.4165,0.1474,0.9294,0.2196
-8.6119,-0.6033,-3.5721,0.1972,1.0509,0.2332
-8.7053,-0.3424,-3.4069,0.2611,1.1311,0.2361
-8.6431,-0.3567,-3.1747,0.3019,1.214,0.2542
-8.5521,-0.3328,-3.067,0.3171,1.343,0.287
-8.8992,-0.7087,-3.0622,0.3712,1.5386,0.3011
-8.9376,-0.3424,-2.8898,0.4231,1.7451,0.3499
-9.6151,-0.759,-3.1915,0.4743,2.036,0.3821
-9.8857,-0.2322,-3.0694,0.558,2.3369,0.405
-10.7643,-0.1413,-3.1484,0.5574,2.622,0.4317
-10.4507,-0.2394,-3.5817,0.6233,2.7185,0.3928
-8.9902,-0.2322,-3.9265,0.7434,2.9295,0.4
-8.4851,-0.3687,-3.9959,0.8617,3.1888,0.4471
-8.3246,-0.5052,-3.9361,0.9228,3.35,0.5023
-8.3486,-0.6249,-3.9241,0.9169,3.513,0.5436
-8.588,-0.5602,-4.1779,0.8319,3.6868,0.5788
-8.8155,-0.905,-4.5274,0.7799,3.9021,0.6014
-8.7963,-0.6081,-4.5969,0.8234,4.1568,0.6254
-8.6838,-0.079,-4.3048,0.8532,4.4254,0.6648
-9.0668,-0.4238,-4.719,0.8029,4.7484,0.7376
-9.3757,-0.1556,-4.2784,0.9462,4.9674,0.696
-9.5577,-0.0359,-4.0342,1.011,5.1787,0.721
-9.1794,-0.261,-3.9624,1.0531,5.3793,0.7376
-8.7676,-0.5195,-3.8618,1.1293,5.6509,0.7623
-8.6095,-0.6656,-3.9002,1.1759,5.912,0.7898
-8.5353,-0.8212,-4.1803,1.1527,6.1457,0.8311
-8.5018,-0.9194,-4.1946,1.1013,6.357,0.8623
-8.0613,-0.9625,-4.4436,1.032,6.5606,0.8937
-7.1515,-0.328,-4.8626,0.6395,6.8065,1.113
-8.1642,-2.1308,-5.6288,0.7365,6.9973,1.0472
-7.0461,-0.893,-5.9568,0.8887,6.9819,1.0022
-6.8378,-0.7638,-6.1962,0.9518,7.0898,1.0003
-6.7205,-0.6512,-6.5888,1.0171,7.1241,1.0171
-6.2369,-0.6033,-6.7756,1.1223,7.2011,1.0312
-6.0118,-0.6728,-6.8115,1.218,7.2947,1.0485
-5.7437,-0.826,-7.1563,1.2985,7.3469,1.0597
-5.4253,-0.8452,-7.513,1.3398,7.3688,1.0509
-5.2074,-0.9026,-7.5681,1.3145,7.3648,1.0373
-5.5665,-0.9122,-7.6184,1.3086,7.4047,1.0059
-3.7158,-0.5698,-7.7165,1.2737,6.8718,1.0413
-3.9816,-0.8811,-7.5872,1.2385,6.9344,1.0035
-3.6727,-0.5243,-8.497,1.1727,6.494,0.9654
-3.3375,-0.6728,-8.6048,1.0925,5.9994,0.9252
-2.9736,-0.6991,-8.6862,1.0091,5.475,0.8799
-4.118,-0.7542,-8.8298,0.9598,5.1366,0.8322
-2.3703,-0.917,-9.2105,0.8703,4.2336,0.8711
-2.0279,-0.9625,-8.7939,0.7975,3.9634,0.8311
-3.3375,-0.8236,-9.5098,0.7266,3.662,0.7202
-3.0789,-0.5076,-9.2368,0.6883,3.2263,0.7093
-3.5721,-1.3192,-9.2105,0.5039,3.0864,0.7408
-3.2489,-0.5555,-9.4834,0.4823,2.7006,0.7493
-2.6288,-0.5794,-9.3111,0.47,2.4656,0.7597
-2.8323,-0.8739,-9.4595,0.3688,2.4088,0.7037
-3.2226,-0.8547,-9.6367,0.2787,2.2425,0.6715
-2.8922,-0.8667,-9.6031,0.2332,2.0403,0.6747
-2.6025,-1.2713,-9.4643,0.1404,2.0888,0.6728
-3.3423,-0.1604,-10.1778,0.238,1.6347,0.6587
-2.2003,-0.7566,-9.7061,0.2108,1.3877,0.7069
-1.98,-0.656,-9.8713,0.1607,1.2055,0.6454
-3.1627,-0.6536,-10.3597,0.1069,1.0709,0.5814
-2.9616,-0.7183,-10.2927,0.0581,0.8807,0.5545
-2.9329,-0.5842,-10.2089,0.052,0.7869,0.5161
-3.1436,-0.5267,-10.3837,0.0546,0.6019,0.4983
-2.624,-0.7159,-10.2017,0.0306,0.385,0.4964
-2.5187,-0.7709,-10.1107,0.0226,0.2406,0.4538
-2.7581,-0.9194,-10.0556,-0.0336,0.1663,0.397
-2.7988,-0.8475,-9.9838,-0.0733,0.0946,0.3432
-2.7294,-0.7063,-9.8976,-0.0671,0.0373,0.3064
-2.6767,-0.6081,-9.7659,-0.0277,-0.036,0.291
-2.8898,-0.6776,-9.5744,-0.004,-0.0751,0.2654
-3.0861,-0.6512,-9.6438,-0.0053,-0.0773,0.2284
-3.2968,-0.5986,-9.7181,-0.0218,0.0099,0.1935
-3.462,-0.4932,-9.9144,-0.0218,0.0858,0.1777
-3.2753,-0.4573,-10.0413,-0.0149,0.1713,0.1751
-3.1292,-0.4597,-10.149,0.0155,0.2595,0.1593
-2.9042,-0.6321,-10.2807,0.0139,0.3187,0.1479
-2.6121,-0.8882,-10.3046,0.0083,0.3549,0.1327
-2.557,-0.8739,-10.3765,-0.0019,0.3712,0.1154
-2.3918,-0.8906,-10.3956,-0.0205,0.3416,0.0941
-2.3104,-0.8092,-10.4746,-0.0338,0.2771,0.0679
-2.1165,-0.814,-10.5297,-0.0528,0.1479,0.053
-1.9154,-0.8978,-10.5273,-0.0837,0.0064,0.0354
-1.9465,-0.7757,-10.5034,-0.0957,-0.1316,-0.004
-1.8555,-0.8571,-10.6063,-0.1183,-0.2902,-0.032
-1.7909,-0.838,-10.6925,-0.1378,-0.4154,-0.0498
-1.8124,-0.8739,-10.6566,-0.1508,-0.5473,-0.0576
-1.6927,-0.7757,-10.6039,-0.1604,-0.672,-0.0687
-2.0638,-0.5578,-10.6374,-0.1431,-0.7309,-0.0879
-2.308,-0.4621,-10.4986,-0.1362,-0.765,-0.1005
-2.7964,-0.3543,-10.3837,-0.1069,-0.6931,-0.1175
-2.9784,-0.3304,-10.5058,-0.0842,-0.6091,-0.1196
-3.1005,-0.3687,-10.5465,-0.0605,-0.4863,-0.1295
-3.0454,-0.419,-10.4722,-0.0402,-0.3488,-0.1396
-2.8826,-0.5435,-10.4387,-0.0285,-0.2142,-0.1458
-2.5402,-0.6584,-10.3166,-0.0133,-0.0997,-0.1498
-2.2649,-0.7614,-10.2304,-0.0003,-0.0226,-0.1492
-2.0231,-0.7398,-10.2065,0.0157,0.0067,-0.1458
-1.81,-0.7111,-10.161,0.0253,-0.0013,-0.1503
-1.6903,-0.747,-10.1514,0.0266,-0.0328,-0.1607
-1.5897,-0.7853,-10.1634,0.0258,-0.0797,-0.1729
-1.4605,-0.8859,-10.1897,0.0069,-0.1596,-0.1759
-1.1468,-0.9337,-10.24,-0.0187,-0.2683,-0.1735
-0.8906,-1.0032,-10.3717,-0.0522,-0.3954,-0.1628
-0.814,-0.9673,-10.2663,-0.0789,-0.5644,-0.1609
-0.814,-0.9385,-10.1179,-0.1132,-0.7501,-0.1559
-0.8499,-0.8547,-10.0796,-0.1402,-0.9363,-0.1527
-0.8811,-0.8571,-10.0365,-0.1777,-1.1141,-0.1508
-0.893,-0.7805,-10.1011,-0.2097,-1.2833,-0.15
-0.9625,-0.8715,-10.1131,-0.2513,-1.444,-0.1426
-1.0822,-0.8236,-10.058,-0.2832,-1.6129,-0.138
-1.2689,-0.7853,-9.8785,-0.3158,-1.7584,-0.1394
-1.3958,-0.6512,-9.7444,-0.3405,-1.9492,-0.1474
-1.0942,-0.7087,-9.7731,-0.3752,-2.137,-0.1436
-0.8332,-0.8906,-9.7803,-0.4261,-2.363,-0.1279
-0.4693,-1.0415,-9.6822,-0.4946,-2.667,-0.1092
-0.3017,-0.9936,-9.5002,-0.5556,-2.9727,-0.0997
-0.6369,-0.9409,-9.0884,-0.6262,-3.3244,-0.1108
-0.5483,-0.8739,-9.2512,-0.6973,-3.7366,-0.1146
-0.6967,-0.7949,-9.2751,-0.7221,-4.1155,-0.1204
-0.9768,-0.6776,-9.0285,-0.7509,-4.4816,-0.1156
-1.5802,-0.5507,-8.7317,-0.7941,-4.9242,-0.0997
-1.5538,-0.5531,-8.9591,-0.8346,-5.4758,-0.0746
-1.5155,-0.3998,-8.8921,-0.8154,-5.9211,-0.0882
-2.3224,-0.3256,-8.3246,-0.8268,-6.4479,-0.1295
-2.1021,-0.4501,-8.7077,-0.8812,-7.0911,-0.1135
-2.3032,-0.3783,-8.5665,-0.8764,-7.5505,-0.1087
-3.1292,-0.2298,-7.8458,-0.8788,-7.9827,-0.1559
-4.2234,0.0096,-7.1563,-0.8724,-8.3184,-0.2038
-5.4899,0.5842,-6.8354,-0.7083,-8.6712,-0.296
-5.6216,0.6201,-6.4117,-0.5353,-8.7314,-0.2811
-6.0334,0.3663,-6.4691,-0.4005,-8.7314,-0.2409
-6.2848,0.4788,-6.2225,-0.2401,-8.7314,-0.2494
-6.9025,0.0192,-4.7669,-0.2174,-8.7314,-0.2302
-7.039,-0.4238,-4.4508,-0.3403,-8.7314,-0.202
-7.8769,-0.6081,-4.1108,-0.4306,-8.7314,-0.2113
-8.5904,-0.6345,-3.5243,-0.473,-8.6845,-0.2398
-8.181,-0.4381,-3.5793,-0.4455,-8.4109,-0.2313
-9.6534,-0.1987,-3.0311,-0.4069,-8.0224,-0.234
-10.0269,-0.0766,-2.8323,-0.3754,-8.0048,-0.2987
-8.3151,-0.2394,-3.2896,-0.2803,-7.5955,-0.2427
-9.3972,-0.1245,-2.9808,-0.1823,-6.9933,-0.2515
-10.2975,-0.1365,-2.6288,-0.1729,-6.5864,-0.2398
-10.6662,-0.0694,-2.2098,-0.1506,-6.2094,-0.2158
-11.0684,-0.1221,-2.0351,-0.133,-5.8382,-0.2097
-9.9742,-0.3663,-2.332,-0.1252,-5.5059,-0.2294
-9.5648,-0.4764,-2.1332,-0.0685,-4.9434,-0.1673
-10.2807,-0.1245,-1.403,-0.0085,-4.5045,-0.1458
-10.0628,-0.012,-0.9601,-0.0528,-4.1342,-0.1127
-10.3669,-0.1053,-0.9481,-0.1284,-3.6599,-0.0461
-10.6303,-0.1293,-0.9984,-0.1372,-3.217,-0.0032
-10.7404,-0.1245,-0.9864,-0.1319,-2.7267,0.0418
-10.9056,-0.0144,-1.2282,-0.0653,-2.201,0.0799
-11.2719,0.0838,-1.2091,0.0187,-1.6534,0.1394
-11.5353,0.2083,-1.1516,0.0943,-1.2033,0.1617
-11.0061,0.2729,-1.5107,0.1759,-0.8244,0.114
-9.7995,-0.2179,-1.6664,0.2326,-0.4831,0.138
-9.3565,-0.1652,-1.4198,0.2939,-0.1551,0.1703
-9.3087,-0.1149,-1.4581,0.3467,0.0357,0.1692
-9.2536,-0.091,-1.3024,0.3691,0.1143,0.1572
-9.0166,-0.103,-1.0511,0.3704,0.1628,0.145
-8.8825,-0.2729,-0.9337,0.3539,0.1855,0.1348
-8.9064,-0.3472,-0.8499,0.3227,0.1988,0.1207
-8.7293,-0.4669,-0.7446,0.2729,0.1556,0.125
-9.0429,-0.4453,-0.6201,0.2137,0.1199,0.1226
-9.5984,-0.4334,-0.3472,0.1482,0.0282,0.1079
-9.4475,-0.4764,-0.4286,0.0989,-0.0402,0.0901
-9.5696,-0.3519,-0.4741,0.0642,-0.0394,0.0815
-9.7229,-0.3639,-0.5004,0.0309,-0.0309,0.077
-9.8402,-0.2562,-0.5315,0.0226,-0.0037,0.0658
-9.991,-0.2897,-0.6153,0.0133,0.0546,0.0501
-10.2137,-0.2442,-0.6728,0.0115,0.1559,0.0386
-10.3813,-0.2658,-0.6488,0.0168,0.2494,0.0253
-10.3693,-0.2849,-0.7302,0.0336,0.3128,0.0101
-9.8809,-0.3232,-0.7614,0.064,0.3989,0.0008
-9.821,-0.3448,-0.5315,0.0903,0.4732,-0.0019
-9.7947,-0.3519,-0.2849,0.0981,0.4986,-0.0093
-9.8282,-0.4262,-0.249,0.0861,0.5063,-0.0232
-9.7588,-0.3519,-0.2873,0.0847,0.5135,-0.0282
-9.8402,-0.4788,-0.2945,0.0706,0.4892,-0.0296
-9.4739,-0.3974,-0.4788,0.0703,0.4274,-0.033
-9.4355,-0.3759,-0.4693,0.056,0.38,-0.0349
-9.4499,-0.3184,-0.4764,0.0293,0.2939,-0.0357
-9.3518,-0.3017,-0.5052,0.0088,0.1895,-0.0445
-9.3972,-0.2777,-0.4717,-0.0061,0.1188,-0.0562
-9.5313,-0.2634,-0.3567,-0.0226,0.0562,-0.065
-9.6965,-0.3543,-0.2059,-0.0442,0.0056,-0.0645
-9.8138,-0.4022,-0.182,-0.0629,-0.0203,-0.0693
-10.0652,-0.4477,-0.1532,-0.0853,-0.0306,-0.0738
-10.0676,-0.4645,-0.0311,-0.1074,-0.0269,-0.0866
-10.1251,-0.4142,0.0838,-0.1378,-0.0101,-0.0978
-9.9695,-0.3352,-0.0551,-0.1628,0.0099,-0.1066
-9.9144,-0.2945,-0.091,-0.1823,0.0341,-0.1146
-9.8497,-0.2729,-0.1772,-0.1972,0.0504,-0.1215
-9.7947,-0.3376,-0.1508,-0.2049,0.0637,-0.1284
-9.8258,-0.3759,-0.1891,-0.2212,0.0706,-0.1391
-9.7636,-0.4621,-0.1748,-0.235,0.0693,-0.1498
-9.8857,-0.407,-0.0838,-0.2587,0.0464,-0.1607
-9.8952,-0.419,0.0192,-0.283,0.0253,-0.1732
-9.9838,-0.4094,0.1317,-0.303,0.0293,-0.1844
-10.0006,-0.3448,0.1317,-0.3206,0.0298,-0.1943
-10.003,-0.2849,0.17,-0.3328,0.0504,-0.2022
-9.8019,-0.3304,0.1628,-0.3331,0.0458,-0.2084
-9.6199,-0.3543,0.2346,-0.3397,0.044,-0.2172
-9.4739,-0.4046,0.1221,-0.348,0.0205,-0.2297
-9.4308,-0.4597,0.0646,-0.3667,-0.0051,-0.238
-9.5409,-0.5674,0.0383,-0.3954,-0.0416,-0.2513
-9.4092,-0.5291,0.0,-0.4258,-0.0751,-0.2561
-9.4427,-0.4573,-0.1341,-0.4557,-0.0887,-0.2603
-9.4379,-0.4118,-0.2107,-0.4759,-0.1007,-0.2689
-9.4763,-0.3831,-0.1556,-0.4882,-0.1042,-0.2747
-9.5361,-0.4022,-0.1867,-0.4986,-0.1034,-0.2787
-9.6103,-0.4238,-0.0886,-0.5137,-0.0823,-0.284
-9.6702,-0.4262,0.103,-0.5281,-0.0719,-0.291
-9.6414,-0.4334,0.1844,-0.546,-0.0536,-0.2974
-9.6486,-0.4693,0.1915,-0.5638,-0.0408,-0.3035
-9.4906,-0.4788,0.1963,-0.575,-0.0368,-0.3075
-9.3877,-0.4214,0.2394,-0.5979,-0.02,-0.3091
-9.2727,-0.3783,0.1844,-0.6182,-0.0179,-0.3104
-9.0956,-0.4046,0.182,-0.6384,-0.0229,-0.3102
-8.9926,-0.4429,0.2418,-0.6539,-0.0157,-0.311
-8.9735,-0.4764,0.3041,-0.6638,-0.0269,-0.3163
-9.0525,-0.5483,0.4046,-0.6851,-0.0381,-0.3219
-9.1123,-0.5602,0.4573,-0.7205,-0.0586,-0.3262
-9.0812,-0.6608,0.5004,-0.7544,-0.0943,-0.3299
-9.098,-0.6464,0.4908,-0.7786,-0.1183,-0.3349
-9.1554,-0.6919,0.5459,-0.8026,-0.145,-0.3421
-9.2057,-0.6656,0.5387,-0.8356,-0.1825,-0.3512
-9.1626,-0.5483,0.6608,-0.874,-0.2196,-0.3597
-9.2081,-0.498,0.9122,-0.9049,-0.2811,-0.3738
-9.2033,-0.4046,1.1468,-0.9326,-0.3512,-0.3893
-9.1267,-0.34,1.1779,-0.9451,-0.4207,-0.408
-9.0333,-0.328,1.2977,-0.9478,-0.4679,-0.4271
-8.9256,-0.3376,1.4676,-0.9734,-0.5041,-0.4367
-8.9902,-0.3328,1.6975,-1.0163,-0.5356,-0.4373
-9.0118,-0.5459,1.7957,-1.0741,-0.6038,-0.4418
-8.8729,-0.6464,1.6879,-1.1319,-0.6651,-0.4447
-8.9854,-0.6249,1.6448,-1.1903,-0.7008,-0.4389
-9.0405,-0.6704,1.7549,-1.2734,-0.7181,-0.437
-9.2177,-0.5866,1.798,-1.372,-0.6909,-0.4391
-9.5433,-0.5578,1.8627,-1.4658,-0.6414,-0.4357
-9.8402,-0.4621,2.1979,-1.5463,-0.5793,-0.4439
-9.9,-0.419,2.4277,-1.6108,-0.4868,-0.4647
-10.1442,-0.3615,2.5259,-1.6694,-0.3717,-0.4815
-10.1825,-0.3735,2.6217,-1.7221,-0.2827,-0.4935
-10.1682,-0.3926,2.8706,-1.7752,-0.1932,-0.5049
-10.2615,-0.3256,3.2082,-1.8263,-0.11,-0.5215
-9.5888,-0.431,3.9289,-1.934,-0.0714,-0.5891
-12.8353,-1.6065,3.0981,-1.9886,-0.0091,-0.7552
-5.7102,-2.0135,-14.686,-2.0102,-1.0682,-0.9441
-3.8786,2.1979,-49.8592,-1.6902,-1.1154,0.2326
-3.2465,7.7381,-48.5736,-1.3979,-1.9838,0.0903
5.4061,8.2193,-28.5078,0.0248,-1.5655,-0.2276
-2.6312,4.0486,-9.019,1.8106,-1.1346,0.3046
-10.7619,-4.6759,0.4429,2.6175,-1.0237,0.04
-16.2111,-7.4268,2.8491,2.4075,-0.6664,-0.1572
-16.0459,-4.2737,3.9121,0.967,-0.2395,-0.0176
-14.3508,-2.2721,1.5467,-0.2214,0.3389,0.1095
-13.1777,1.3671,0.0646,-0.5534,0.55,0.1935
-11.9351,2.8443,-0.8978,-0.4186,0.5985,0.1314
-9.5888,3.0742,-2.1691,-0.0048,0.6478,0.0504
-7.2089,2.4924,-2.6025,0.2641,0.5095,0.0791
-5.7509,1.1636,-2.739,0.3403,0.199,0.0679
-5.0518,-0.1508,-2.3032,0.2657,-0.1263,0.0496
-5.1858,-0.9768,-1.6735,0.0903,-0.3643,0.0709
-6.2201,-1.1444,-1.0702,-0.0781,-0.5351,0.0703
-7.58,-1.1636,-0.7063,-0.2289,-0.5641,0.0085
-8.9208,-1.2546,-0.419,-0.2982,-0.4386,-0.0765
-9.9144,-1.3288,-0.1053,-0.3315,-0.1532,-0.1633
-10.228,-1.2498,-0.0742,-0.2867,0.251,-0.2249
-10.0796,-1.0127,-0.0048,-0.1545,0.7981,-0.2486
-9.596,-0.929,-0.0646,0.0197,1.263,-0.2185
-8.6143,-1.0702,0.0718,0.1458,1.5127,-0.17
-8.0445,-1.3048,-0.146,0.1756,1.5636,-0.1436
-7.7788,-1.6209,-0.5626,0.1236,1.4344,-0.1343
-7.8889,-1.7238,-1.0199,0.0613,1.2769,-0.1324
-8.2624,-1.7262,-1.3408,0.0069,1.092,-0.1194
-8.2744,-1.5036,-1.3838,-0.0043,0.9587,-0.1039
-8.2648,-1.1516,-1.4437,0.0051,0.8769,-0.0536
-8.2121,-0.8835,-1.4844,-0.0051,0.8226,0.0011
-8.2145,-0.8547,-1.7741,0.0288,0.7879,0.0296
-8.2887,-0.6823,-1.8411,0.0981,0.7266,0.0797
-8.3127,-0.6201,-1.6137,0.141,0.6555,0.1194
-8.6072,-0.6991,-1.6305,0.1647,0.5718,0.1543
-8.9088,-0.8523,-1.6424,0.1823,0.5247,0.2004
-9.2344,-0.9218,-1.64,0.2148,0.5454,0.2507
-9.5888,-0.9313,-1.6616,0.2403,0.6289,0.2931
-9.9264,-0.838,-1.6328,0.2494,0.7456,0.315
-9.8737,-0.7326,-1.8723,0.255,0.8271,0.3166
-9.4116,-0.6943,-2.2075,0.2662,0.9531,0.3283
-9.232,-0.6656,-2.5594,0.2875,1.0997,0.3461
-9.2368,-0.6464,-2.7677,0.323,1.2356,0.3483
-9.1674,-0.5914,-2.9042,0.372,1.3848,0.3395
-9.1219,-0.5962,-3.0023,0.4149,1.5404,0.3285
-9.0381,-0.6512,-3.2729,0.4226,1.72,0.3403
-9.0405,-0.6608,-3.3232,0.4378,1.9284,0.3584
-9.0621,-0.6943,-3.4524,0.4863,2.1368,0.3515
-8.9232,-0.5938,-3.5865,0.555,2.4413,0.3712
-9.1866,-0.3711,-3.3998,0.5734,2.7816,0.4245
-9.7324,-0.7638,-3.6583,0.555,3.1208,0.4666
-9.9168,-0.34,-3.4453,0.5788,3.3798,0.4839
-10.0892,-0.8092,-3.5769,0.5574,3.6966,0.5137
-9.7612,-0.4357,-3.5147,0.6781,4.0481,0.493
-9.8521,-0.2418,-3.4093,0.7016,4.4787,0.5684
-11.0684,-0.2993,-3.2154,0.7562,4.7017,0.5558
-9.7851,-0.2729,-3.3926,0.8199,4.6114,0.4842
-7.8051,-0.3759,-3.9648,0.9292,4.763,0.4991
-7.4292,-0.4741,-4.3024,1.0024,4.8851,0.5478
-7.3526,-0.5148,-4.3455,1.0091,4.8587,0.5737
-7.331,-0.5626,-4.8315,0.9638,4.7702,0.5681
-7.2161,-0.5986,-5.5091,0.8903,4.5733,0.5593
-6.5769,-0.6153,-6.0717,0.8335,4.3849,0.5788
-6.1268,-0.6776,-6.4596,0.8045,4.2815,0.6198
-6.0932,-0.6584,-6.5888,0.7999,4.2274,0.6424
-6.2225,-0.7326,-6.7971,0.7978,4.2352,0.6558
-6.4572,-0.8236,-6.9001,0.7746,4.3076,0.6702
-6.7133,-0.9074,-7.0342,0.7522,4.4566,0.6845
-6.2225,-0.3017,-6.5817,0.6909,4.6804,0.7288
-7.1467,-1.5874,-7.6112,0.2361,5.0724,0.9595
-7.8171,-1.2953,-7.5561,0.5031,5.2333,0.7959
-7.7716,-0.4501,-7.3717,0.6411,5.5152,0.8218
-7.8602,-0.158,-7.0485,0.8108,5.8526,0.8833
-7.7788,-0.0455,-6.7588,1.0208,6.2011,0.951
-7.367,-0.0192,-6.7301,1.2332,6.5465,0.9769
-7.0677,-0.2251,-7.0797,1.3773,6.8484,0.9587
-7.1371,-0.4621,-7.094,1.417,7.0783,0.9502
-6.5864,-0.6081,-7.3263,1.4493,7.276,0.9449
-6.098,-0.6895,-7.2449,1.4818,7.4657,0.9558
-6.3087,-0.6393,-7.6207,1.5404,7.4556,0.9878
-4.0797,-1.0654,-7.2927,1.502,7.4809,1.0224
-4.2114,-1.1181,-7.9248,1.4666,7.4295,1.0243
-3.6631,-1.0846,-8.0062,1.3968,7.2113,1.0315
-2.9568,-1.0702,-7.999,1.3427,6.9152,1.0379
-4.276,-0.7997,-8.3031,1.3547,6.6224,1.0419
-1.9297,-0.8404,-8.3151,1.2614,5.8137,1.1509
-1.9728,-0.984,-8.2313,1.113,5.6674,1.0549
-2.976,-0.7997,-9.268,0.9798,5.2501,0.9483
-2.4349,-0.6656,-9.244,0.903,4.7849,0.9281
-2.8994,-1.64,-9.5409,0.6659,4.5541,0.934
-2.7174,-1.0127,-9.809,0.6198,3.9991,0.9374
-1.8507,-0.9361,-9.2656,0.5934,3.5157,0.9236
-1.9776,-1.2426,-9.3805,0.4525,3.3281,0.8319
-2.648,-1.4006,-9.5337,0.2896,3.2189,0.785
-1.7597,-1.1444,-9.6007,0.2294,2.5402,0.8439
-0.8739,-0.9673,-9.3494,0.1769,2.129,0.8839
-0.9385,-0.7398,-9.1411,0.1588,1.8783,0.7679
-1.7334,-0.8356,-9.1051,0.0608,1.4839,0.7085
-1.8962,-0.7901,-9.0453,0.0226,1.2068,0.6448
-2.5091,-0.577,-9.098,0.0309,0.9566,0.6169
-2.4828,-0.4741,-8.9759,0.0117,0.7381,0.6416
-2.9353,-0.5626,-9.1195,-0.0426,0.5958,0.6265
-3.4716,-0.5626,-9.2751,-0.1053,0.5633,0.5782
-3.984,-0.1508,-9.517,-0.0546,0.5177,0.5079
-4.0342,-0.1173,-9.663,-0.0272,0.5526,0.4639
-3.9409,-0.2801,-10.0604,-0.0234,0.4772,0.4735
-3.4117,-0.5028,-9.991,-0.0304,0.4962,0.4447
-3.474,-0.6153,-10.2615,-0.0378,0.5742,0.3629
-3.3471,-0.68,-10.4507,-0.0541,0.567,0.3062
-2.7533,-0.7925,-10.3741,-0.0722,0.5585,0.2761
-2.6552,-0.759,-10.4483,-0.0594,0.5079,0.2451
-2.047,-0.8619,-10.5824,-0.0738,0.3544,0.2292
-1.9297,-0.8667,-10.4746,-0.0679,0.2092,0.1876
-1.9513,-0.9026,-10.4627,-0.0853,0.0528,0.1442
-2.1955,-0.8547,-10.4794,-0.1005,-0.0424,0.1034
-2.2242,-0.8739,-10.4076,-0.1138,-0.1439,0.0839
-2.2769,-0.8571,-10.4148,-0.1196,-0.1943,0.0549
-2.332,-0.7853,-10.3741,-0.1124,-0.2505,0.0203
-2.3846,-0.8332,-10.4818,-0.1092,-0.2758,-0.0139
-2.5091,-0.8068,-10.5034,-0.0997,-0.2769,-0.0402
-2.6983,-0.8954,-10.5297,-0.1111,-0.2316,-0.0597
-2.6528,-0.8595,-10.5273,-0.1148,-0.1935,-0.0815
-2.7102,-0.747,-10.5512,-0.105,-0.1143,-0.1095
-2.3966,-0.6416,-10.4746,-0.073,-0.085,-0.13
-2.1859,-0.7183,-10.5345,-0.0541,-0.0653,-0.1367
-2.1213,-0.8212,-10.5034,-0.049,-0.0448,-0.1553
-1.8507,-0.9266,-10.6829,-0.065,-0.0354,-0.1665
-2.0446,-0.7422,-10.6638,-0.0496,-0.008,-0.1953
-1.9465,-0.7087,-10.7212,-0.0365,-0.004,-0.1943
-1.7669,-0.7614,-10.8481,-0.037,-0.004,-0.1823
-1.5395,-0.8188,-10.8122,-0.0362,-0.0043,-0.1793
-1.3934,-0.8452,-10.8386,-0.0405,-0.0384,-0.1815
-1.3455,-0.826,-10.8314,-0.0509,-0.069,-0.1847
-1.3312,-0.7398,-10.8984,-0.0544,-0.1202,-0.1863
-1.245,-0.7638,-10.9176,-0.0578,-0.1735,-0.1889
-1.2713,-0.7111,-10.8936,-0.0562,-0.2222,-0.1961
-1.1636,-0.8045,-10.92,-0.0552,-0.2675,-0.199
-0.905,-0.8595,-10.7978,-0.061,-0.3251,-0.199
-0.723,-0.8667,-10.659,-0.0669,-0.3813,-0.1958
-0.68,-0.8739,-10.5608,-0.0754,-0.4567,-0.1927
-0.6393,-0.8404,-10.5153,-0.0866,-0.538,-0.1916
-0.5746,-0.7853,-10.4914,-0.1031,-0.6222,-0.1873
-0.6464,-0.7661,-10.3884,-0.121,-0.6981,-0.1855
-0.6488,-0.6728,-10.3525,-0.137,-0.7786,-0.1809
-0.5602,-0.6536,-10.386,-0.1522,-0.87,-0.1735
-0.5578,-0.5866,-10.2783,-0.1631,-0.9609,-0.1657
-0.6081,-0.5818,-10.3573,-0.1705,-1.0698,-0.1553
-0.7446,-0.5507,-10.307,-0.1751,-1.1778,-0.1452
-0.8308,-0.498,-10.1682,-0.1788,-1.2875,-0.1338
-0.7757,-0.5315,-9.9982,-0.1996,-1.3845,-0.1271
-0.51,-0.6393,-10.0341,-0.234,-1.5066,-0.1202
-0.0934,-0.826,-10.2232,-0.275,-1.6569,-0.1074
0.0575,-0.8547,-9.9192,-0.3174,-1.8319,-0.0973
0.0958,-0.9122,-9.5193,-0.372,-2.068,-0.0957
0.2897,-0.9601,-9.6079,-0.4349,-2.3291,-0.0874
0.4693,-1.0032,-9.7779,-0.4991,-2.5991,-0.0821
0.1939,-0.9888,-9.6271,-0.5646,-2.8898,-0.0799
-0.0766,-0.9146,-9.5337,-0.6435,-3.2706,-0.077
-0.1197,-0.6584,-9.6893,-0.6598,-3.6391,-0.0901
-0.4525,-0.5004,-9.4499,-0.6566,-3.9738,-0.1029
-0.8715,-0.4142,-9.4882,-0.6606,-4.3047,-0.0965
-1.482,-0.3974,-9.335,-0.7096,-4.5917,-0.0746
-1.9752,-0.3256,-9.3182,-0.732,-4.8696,-0.0557
-2.3774,-0.3352,-9.1961,-0.7565,-5.1121,-0.0397
-2.8084,-0.2753,-8.9591,-0.7765,-5.329,-0.0429
-3.0574,-0.1891,-9.0429,-0.7805,-5.4963,-0.0376
-3.3519,-0.2586,-8.7484,-0.7847,-5.7263,-0.0181
-3.2322,-0.3591,-8.5018,-0.8162,-6.0503,-0.0048
-2.7653,-0.395,-8.7173,-0.809,-6.3463,-0.0029
-3.0215,-0.419,-8.3222,-0.8045,-6.6898,-0.0453
-3.0526,-0.2753,-8.3079,-0.7821,-7.0911,-0.0831
-3.4596,0.3065,-7.8961,-0.5883,-7.3839,-0.1684
-4.8363,0.3184,-7.0174,-0.4802,-7.712,-0.198
-5.0949,0.2849,-6.9599,-0.4223,-8.1412,-0.1887
-5.3199,0.1963,-6.5936,-0.3491,-8.3757,-0.1865
-7.2425,0.5195,-6.0813,-0.2649,-8.7109,-0.215
-5.5354,-0.1532,-5.466,-0.2657,-8.7314,-0.1572
-5.6431,-0.2634,-4.9536,-0.299,-8.7314,-0.1231
-7.8362,-0.5243,-3.9169,-0.4215,-8.7314,-0.1865
-7.1012,-0.7685,-4.027,-0.5183,-8.7314,-0.1958
-7.6806,-0.4453,-3.7637,-0.5089,-8.68,-0.1951
-9.2296,-0.2298,-3.3902,-0.5225,-8.3373,-0.203
-10.2568,-0.0407,-2.9784,-0.5316,-8.0578,-0.2049
-10.0676,0.1173,-3.1125,-0.4836,-7.6094,-0.1633
-11.3246,0.1149,-2.9185,-0.4261,-7.2313,-0.142
-9.9144,-0.1413,-3.4477,-0.3357,-6.9296,-0.1404
-9.9264,0.012,-3.0143,-0.21,-6.3058,-0.1077
-10.6973,0.079,-2.3631,-0.1767,-5.7455,-0.0917
-11.224,0.2203,-1.9728,-0.1849,-5.2576,-0.0682
-11.6478,0.2586,-1.81,-0.1956,-4.7614,-0.0573
-11.7053,0.1413,-1.8196,-0.1791,-4.3018,-0.0775
-10.987,0.0407,-2.0063,-0.1239,-3.9237,-0.0986
-10.0149,-0.0239,-2.0877,-0.0282,-3.4062,-0.0552
-10.1562,0.182,-1.5802,0.0437,-2.938,0.0019
-10.058,0.1891,-1.482,0.0626,-2.5487,0.0152
-10.1634,-0.0335,-1.6688,0.0341,-2.1581,0.0282
-10.2496,-0.146,-1.6592,0.0322,-1.8063,0.0554
-10.6063,-0.0575,-1.743,0.1007,-1.4173,0.049
-10.5584,-0.1437,-1.5179,0.0909,-1.073,0.0711
-10.4962,-0.0862,-1.6065,0.0991,-0.6912,0.064
-10.7236,0.0287,-1.5538,0.1335,-0.296,0.0669
-11.0181,0.1101,-1.3767,0.1839,0.0021,0.0584
-10.5082,-0.0168,-1.2378,0.2156,0.158,0.0362
-9.8737,-0.0934,-1.2689,0.2228,0.2459,-0.0125
-9.3254,-0.3184,-1.1325,0.2332,0.3019,-0.0333
-9.1123,-0.261,-0.929,0.2326,0.2923,-0.0261
-8.9878,-0.1317,-0.6393,0.1873,0.2515,-0.028
-9.0764,-0.2227,-0.51,0.1156,0.2177,-0.0392
-9.1435,-0.2346,-0.4764,0.0663,0.1809,-0.0525
-9.4523,-0.0479,-0.498,0.0632,0.1948,-0.0629
-9.6869,-0.2011,-0.4717,0.0402,0.105,-0.0682
-9.1339,-0.2059,-0.5842,0.0376,-0.0253,-0.0757
-9.0094,-0.2251,-0.5483,0.0405,-0.1327,-0.0741
-8.8777,-0.2322,-0.4166,0.0293,-0.2411,-0.0695
-8.9495,-0.3208,-0.3304,-0.0107,-0.2934,-0.0592
-9.1818,-0.3998,-0.3903,-0.0496,-0.3262,-0.0488
-9.3996,-0.3663,-0.2993,-0.0655,-0.3224,-0.0456
-9.9527,-0.316,-0.1317,-0.0608,-0.3174,-0.0445
-9.6893,-0.4238,-0.1053,-0.0554,-0.3954,-0.061
-9.3541,-0.4764,-0.1053,-0.0448,-0.4029,-0.0794
-9.4116,-0.4286,0.2801,-0.0501,-0.4479,-0.0845
-9.5313,-0.4094,0.5411,-0.065,-0.4732,-0.0885
-9.7205,-0.4573,0.5842,-0.0802,-0.4453,-0.0903
-9.8737,-0.4621,0.7805,-0.0882,-0.3906,-0.085
-9.9359,-0.4717,0.7494,-0.0954,-0.3102,-0.0781
-9.9024,-0.4022,0.6057,-0.0986,-0.2182,-0.0725
-9.833,-0.328,0.4645,-0.1058,-0.1242,-0.0669
-9.8689,-0.2993,0.3926,-0.1002,-0.0594,-0.0624
-9.6893,-0.3208,0.2322,-0.0898,-0.0506,-0.0709
-9.3182,-0.4046,0.2801,-0.0877,-0.0437,-0.0794
-9.1602,-0.4381,0.3687,-0.0914,-0.0584,-0.0943
-9.1291,-0.3974,0.577,-0.1127,-0.0962,-0.0999
-9.1937,-0.3472,0.6608,-0.1559,-0.1428,-0.1015
-9.3422,-0.3376,0.6225,-0.2137,-0.1857,-0.1023
-9.4571,-0.3472,0.5195,-0.2753,-0.2446,-0.1119
-9.4882,-0.2945,0.4812,-0.316,-0.32,-0.1263
-9.4092,-0.2825,0.3926,-0.3565,-0.3981,-0.1482
-9.4379,-0.2586,0.589,-0.3893,-0.4471,-0.1703
-9.5672,-0.1796,0.6823,-0.4253,-0.493,-0.1796
-9.7348,-0.2227,0.7518,-0.4644,-0.5089,-0.1841
-9.9311,-0.237,0.747,-0.5055,-0.49,-0.1892
-10.0126,-0.2873,0.6943,-0.5409,-0.4602,-0.1956
-9.9862,-0.2298,0.6656,-0.5705,-0.3984,-0.2054
-10.1466,-0.2682,0.4956,-0.5969,-0.3216,-0.2137
-10.1179,-0.2035,0.3807,-0.6217,-0.2518,-0.2265
-9.9838,-0.1891,0.4046,-0.6334,-0.1791,-0.2422
-10.0413,-0.1939,0.4405,-0.6387,-0.1114,-0.2577
-10.0006,-0.1772,0.5363,-0.6523,-0.0565,-0.2723
-9.9982,-0.2346,0.6225,-0.668,0.0011,-0.2848
-9.8833,-0.237,0.5962,-0.6805,0.0378,-0.2979
-9.6774,-0.2322,0.6057,-0.6893,0.0781,-0.3062
-9.5481,-0.2442,0.6081,-0.6933,0.1236,-0.3096
-9.5026,-0.3424,0.7015,-0.6955,0.133,-0.3072
-9.2751,-0.4214,0.589,-0.7016,0.1111,-0.3131
-9.098,-0.4118,0.5507,-0.7037,0.0749,-0.3171
-9.074,-0.4214,0.5866,-0.7136,0.0163,-0.3168
-9.1411,-0.3328,0.6704,-0.7378,-0.0392,-0.319
-9.3757,-0.3711,0.7398,-0.7578,-0.0898,-0.3091
-9.517,-0.4501,0.8308,-0.7749,-0.1455,-0.3019
-9.5553,-0.5746,0.917,-0.7903,-0.1695,-0.3038
-9.596,-0.6297,0.9122,-0.8138,-0.1732,-0.3099
-9.6103,-0.577,0.9577,-0.8452,-0.1689,-0.3115
-9.6654,-0.6177,0.9673,-0.8769,-0.1625,-0.3075
-9.5026,-0.68,0.9792,-0.8972,-0.1759,-0.315
-9.4284,-0.6871,0.9218,-0.9153,-0.1719,-0.324
-9.4499,-0.6776,0.9194,-0.9446,-0.1783,-0.3224
-9.517,-0.6776,1.0271,-0.9827,-0.2137,-0.3264
-9.414,-0.6488,1.2186,-1.0261,-0.2414,-0.3493
-9.3182,-0.565,1.3551,-1.0587,-0.2798,-0.3693
-9.1171,-0.486,1.5419,-1.1,-0.303,-0.3853
-8.9711,-0.4525,1.6999,-1.1532,-0.3152,-0.3973
-8.9208,-0.3496,1.98,-1.2049,-0.3307,-0.4042
-8.9304,-0.3519,2.2362,-1.2649,-0.3328,-0.4133
-9.0573,-0.4166,2.3607,-1.3227,-0.3371,-0.4309
-9.3134,-0.5363,2.5067,-1.3781,-0.3304,-0.4466
-9.4451,-0.5076,2.7246,-1.4237,-0.32,-0.453
-9.5241,-0.6177,2.9042,-1.4714,-0.2904,-0.4509
-9.6199,-0.68,2.9928,-1.534,-0.2356,-0.449
-9.7659,-0.7159,3.0837,-1.6172,-0.1748,-0.441
-9.9096,-0.6656,2.976,-1.7016,-0.1138,-0.4357
-9.8833,-0.5267,2.7821,-1.7834,-0.0133,-0.4242
-10.7763,-0.2658,3.723,-1.8706,0.0397,-0.4096
-11.5903,-1.2282,1.889,-1.9681,0.2571,-0.6464
-8.9567,-1.0415,-14.0085,-2.0507,-0.4295,-0.744
-6.4811,3.1484,-49.0668,-1.6745,-0.4431,0.1735
-7.5298,7.6758,-45.1642,-1.4746,-1.5684,0.04
2.8132,8.0302,-26.5469,-0.0101,-1.2638,-0.6067
-2.0399,4.0007,-9.73,1.9641,-0.8228,0.219
-8.1235,-4.3479,-0.9122,2.679,-1.0059,0.0994
-13.2304,-7.9128,2.9185,2.5085,-0.7021,-0.1913
-14.5137,-4.1276,3.7421,0.9678,-0.4546,-0.1247
-13.8337,-1.5371,1.4796,-0.3102,-0.032,0.0155
-13.0699,1.8651,0.9098,-0.6584,0.238,0.0887
-12.0931,3.1963,0.2801,-0.4434,0.4546,0.0245
-10.5752,3.4309,-0.5986,0.0037,0.6201,-0.0525
-8.4491,2.6169,-0.9673,0.2974,0.5532,-0.0552
-6.6104,1.3479,-1.4533,0.3808,0.3248,-0.0466
-5.5593,0.2322,-1.4246,0.3717,0.0759,-0.0336
-4.9823,-1.0199,-0.7518,0.2473,-0.2475,0.0043
-5.4779,-1.5419,-0.3376,0.0458,-0.4852,0.0056
-6.8785,-1.6424,-0.2011,-0.138,-0.5716,-0.0203
-8.327,-1.6305,-0.2634,-0.2667,-0.482,-0.0903
-9.3182,-1.6089,-0.4286,-0.3083,-0.2278,-0.1687
-9.426,-1.3671,-0.3687,-0.2502,0.1593,-0.2241
-9.2584,-1.1756,0.0455,-0.1218,0.6195,-0.2289
-8.5688,-1.0343,0.4429,0.0514,1.0,-0.2052
-8.0804,-1.2043,0.5267,0.1943,1.2572,-0.1841
-7.7668,-1.5347,0.4238,0.2465,1.3051,-0.1466
-7.4172,-1.7597,0.3687,0.2209,1.1724,-0.1194
-7.3263,-1.8531,0.2801,0.1348,0.9545,-0.1047
-7.774,-1.7597,0.2945,0.0482,0.7514,-0.097
-8.2025,-1.5275,0.1077,-0.0107,0.5609,-0.0898
-8.3055,-1.3575,-0.1293,-0.0544,0.4061,-0.0706
-8.0589,-1.1875,-0.3519,-0.0733,0.2478,-0.0365
-7.829,-1.0367,-0.4166,-0.0919,0.1516,-0.0005
-8.0158,-0.9026,-0.6416,-0.0935,0.0653,0.0392
-8.3701,-0.8404,-0.826,-0.0557,-0.0056,0.0605
-8.7293,-1.0319,-1.0894,-0.0317,-0.0568,0.0938
-9.1746,-1.2546,-1.3719,-0.0112,-0.0581,0.1164
-9.5984,-1.4126,-1.549,-0.0117,-0.0147,0.1308
-9.7444,-1.336,-1.822,-0.0216,0.0362,0.141
-9.809,-1.2522,-2.1428,-0.0152,0.121,0.1479
-9.7803,-1.1612,-2.3367,0.0147,0.2004,0.1543
-9.6917,-1.0534,-2.411,0.0544,0.2896,0.1548
-9.6199,-0.9361,-2.4541,0.0914,0.3938,0.1524
-9.5505,-0.8787,-2.7031,0.1234,0.4938,0.1495
-9.2799,-0.8212,-2.7821,0.1442,0.5796,0.1476
-8.9878,-0.7207,-2.9353,0.1855,0.6712,0.1543
-8.9064,-0.6416,-2.8371,0.2185,0.7408,0.1641
-8.9016,-0.6225,-2.6695,0.2414,0.7647,0.1695
-9.1075,-0.5243,-2.3487,0.2806,0.7757,0.1596
-9.3877,-0.4621,-2.0111,0.3131,0.7522,0.1452
-9.0573,-0.4741,-1.9249,0.3509,0.7338,0.1383
-8.9447,-0.4573,-1.7573,0.388,0.7541,0.1484
-9.0764,-0.5315,-1.5682,0.4138,0.7767,0.1671
-9.244,-0.5291,-1.5036,0.4327,0.8215,0.1796
-9.5936,-0.4717,-1.4437,0.4383,0.8918,0.1927
-9.8234,-0.3783,-1.5778,0.4359,0.9739,0.2134
-9.8306,-0.3041,-1.7478,0.4325,1.0957,0.2462
-9.8641,-0.4669,-2.0327,0.4378,1.2622,0.2819
-9.9335,-0.3974,-2.3559,0.5039,1.4663,0.2931
-9.9886,-0.3304,-2.5498,0.5753,1.7275,0.3208
-10.149,-0.407,-2.6288,0.5993,2.0179,0.3552
-10.1083,-0.3855,-3.0718,0.6003,2.3739,0.4077
-10.2424,-0.5483,-3.4764,0.656,2.8045,0.4423
-10.1442,-0.1053,-3.4046,0.6688,3.2309,0.5009
-10.5728,-0.3615,-3.7373,0.6864,3.6894,0.542
-10.6039,-0.7614,-4.2329,0.7208,4.1643,0.6163
-10.3573,-0.3926,-4.2856,0.9595,4.6146,0.5822
-9.7109,-0.103,-4.0917,1.0046,5.1502,0.6789
-10.2232,-0.8236,-4.2617,1.117,5.722,0.6941
-9.9719,-0.6249,-3.9025,1.2654,6.1001,0.68
-9.3925,-0.8332,-3.7733,1.3398,6.4708,0.6859
-8.8657,-1.1349,-3.5051,1.4008,6.822,0.7075
-8.497,-1.3192,-3.2322,1.4453,7.1319,0.7264
-7.9942,-1.4054,-3.2944,1.4719,7.3424,0.7554
-7.1898,-1.5371,-3.6057,1.4485,7.4639,0.797
-6.4117,-1.482,-3.8547,1.4365,7.5446,0.8351
-6.2273,-1.3958,-4.4939,1.3888,7.5436,0.8567
-6.3686,-1.2115,-5.0518,1.2915,7.3962,0.8812
-6.1651,-1.1636,-5.1954,1.1623,7.2011,0.9049
-5.9256,-1.1133,-5.1643,1.0978,7.1175,0.9427
-5.8203,-0.3974,-6.0956,0.7922,7.1297,1.1207
-7.2688,-1.4389,-6.5362,0.9665,7.0983,1.0869
-6.8331,-0.5291,-6.2704,1.0954,6.9576,1.0984
-6.2752,-0.4693,-6.2393,1.2001,6.9949,1.1013
-6.7756,-0.4118,-6.5266,1.2774,7.0951,1.1325
-6.5721,-0.2993,-6.7133,1.336,7.1098,1.1319
-7.2544,-0.4118,-7.2185,1.3672,6.9928,1.17
-4.9464,-0.7853,-6.8426,1.3022,6.8606,1.1882
-5.4923,-1.1061,-7.422,1.2305,6.726,1.1367
-4.5418,-1.0127,-7.6878,1.1402,6.4007,1.088
-4.2808,-1.0247,-7.853,1.0728,6.0149,1.007
-4.1994,-0.8308,-7.9966,1.0006,5.6272,0.9033
-3.9744,-0.7087,-7.829,0.9196,5.2688,0.7949
-4.853,-0.7326,-8.3438,0.8649,4.8725,0.7378
-2.6983,-0.9577,-8.4132,0.7978,4.269,0.7608
-2.5115,-0.9864,-8.4707,0.7237,4.1328,0.6531
-3.5937,-0.8045,-9.0788,0.6427,3.8221,0.5249
-2.806,-0.8547,-8.7125,0.5119,3.4563,0.5004
-3.6559,-1.0367,-9.2775,0.3845,3.172,0.4815
-3.1244,-0.5195,-9.1243,0.3552,2.7661,0.4647
-2.897,-0.486,-9.0381,0.3211,2.5391,0.4101
-3.5434,-0.5626,-9.2823,0.2305,2.4485,0.3158
-3.5865,-0.5626,-9.1506,0.1777,2.2407,0.2697
-3.4357,-0.577,-9.0309,0.1412,2.08,0.2443
-2.4157,-0.4884,-8.8035,0.105,1.9033,0.2182
-4.2832,-0.2634,-9.5433,0.1364,1.7205,0.1836
-2.0207,-0.8021,-9.1578,0.0671,1.2327,0.2529
-1.7789,-0.3496,-9.2464,0.1367,0.9145,0.2246
-2.7821,-0.6009,-9.4332,0.0759,0.8474,0.1151
-3.7733,-0.486,-9.6989,0.0221,0.7621,0.0568
-3.3064,-0.6105,-9.7229,-0.02,0.7085,0.0895
-3.1771,-0.3376,-9.9862,0.0192,0.659,0.1164
-2.3176,-0.5291,-10.1035,0.0426,0.4887,0.1346
-1.9058,-0.7159,-10.094,0.0197,0.3898,0.0965
-2.083,-0.9074,-10.1897,-0.0272,0.3277,0.0485
-2.083,-0.8332,-10.2376,-0.0517,0.2214,0.0314
-2.1045,-0.8571,-10.1873,-0.0791,0.1351,0.0386
-1.7957,-0.8308,-10.2735,-0.077,-0.0053,0.0392
-1.889,-0.9409,-10.3166,-0.11,-0.0781,0.0149
-2.1356,-0.8547,-10.4411,-0.1314,-0.1591,-0.024
-2.2721,-0.8212,-10.4291,-0.1471,-0.1916,-0.0418
-2.399,-0.759,-10.5082,-0.1474,-0.2284,-0.049
-2.2721,-0.7542,-10.5153,-0.1364,-0.2531,-0.0533
-2.2841,-0.838,-10.6279,-0.1463,-0.2526,-0.0581
-2.4062,-0.747,-10.6063,-0.1122,-0.2603,-0.0701
-2.5379,-0.814,-10.6159,-0.1127,-0.2172,-0.0765
-2.557,-0.7326,-10.6279,-0.0903,-0.1604,-0.0826
-2.6767,-0.6823,-10.6087,-0.0666,-0.0493,-0.0831
-2.5115,-0.6632,-10.6997,-0.0522,0.0325,-0.0749
-2.1668,-0.7685,-10.6494,-0.045,0.0986,-0.0608
-1.913,-0.8356,-10.6829,-0.0336,0.1292,-0.0573
-1.7095,-0.8811,-10.6518,-0.028,0.1194,-0.0618
-1.4581,-0.9481,-10.6159,-0.0333,0.0741,-0.065
-1.5419,-0.8906,-10.635,-0.0301,0.0314,-0.0687
-1.3455,-0.984,-10.6638,-0.0458,-0.0296,-0.0629
-1.3575,-0.917,-10.5704,-0.053,-0.0762,-0.0642
-1.257,-0.8835,-10.5489,-0.0618,-0.1386,-0.0522
-1.2402,-0.838,-10.5967,-0.0621,-0.2097,-0.0485
-1.2354,-0.8475,-10.5153,-0.0626,-0.2888,-0.0448
-1.2282,-0.8404,-10.5704,-0.0698,-0.3579,-0.0408
-1.3096,-0.8236,-10.6805,-0.077,-0.3976,-0.0408
-1.2546,-0.7877,-10.6183,-0.0855,-0.4349,-0.0416
-1.2498,-0.7853,-10.4651,-0.0866,-0.4663,-0.033
-1.087,-0.7063,-10.4698,-0.0826,-0.5052,-0.0248
-1.0774,-0.7614,-10.4507,-0.0743,-0.5561,-0.0179
-1.0008,-0.7278,-10.3621,-0.0743,-0.6265,-0.0117
-0.9553,-0.7542,-10.3262,-0.0823,-0.712,-0.0072
-0.8859,-0.8308,-10.3884,-0.0983,-0.8031,-0.0021
-0.8571,-0.8092,-10.3214,-0.117,-0.911,0.0037
-0.7709,-0.7901,-10.2544,-0.1412,-1.0349,0.0093
-0.7709,-0.8045,-10.1203,-0.1735,-1.1786,0.0189
-0.68,-0.7422,-10.0413,-0.1913,-1.3443,0.0266
-0.7135,-0.7733,-9.8737,-0.2222,-1.5108,0.036
-0.6536,-0.7638,-9.8306,-0.2585,-1.716,0.0408
-0.4669,-0.9337,-9.6678,-0.3144,-1.9374,0.0536
-0.2298,-0.8739,-9.6845,-0.3573,-2.1903,0.0578
-0.407,-0.9026,-9.7037,-0.4207,-2.4829,0.0845
-0.6823,-0.7973,-9.6774,-0.4708,-2.8109,0.0991
-0.9912,-0.6177,-9.6199,-0.4956,-3.1088,0.1116
-1.5323,-0.395,-9.4451,-0.4959,-3.3412,0.1002
-1.8627,-0.3783,-9.493,-0.4975,-3.5498,0.1194
-2.1284,-0.4357,-9.5864,-0.4922,-3.7704,0.1692
-2.4565,-0.4142,-9.4595,-0.481,-3.9335,0.1871
-2.7677,-0.3472,-9.3206,-0.458,-4.0843,0.1871
-3.1053,-0.3663,-9.0046,-0.4453,-4.2066,0.2009
-3.0885,-0.5004,-9.0022,-0.4828,-4.4137,0.2329
-2.6001,-0.6225,-9.1866,-0.4954,-4.6138,0.2641
-2.4804,-0.6297,-8.9591,-0.4994,-4.8195,0.2726
-2.8371,-0.5698,-8.6862,-0.5409,-5.0535,0.2739
-3.3926,-0.407,-8.3151,-0.5836,-5.3359,0.2446
-3.9097,-0.2921,-8.0278,-0.5931,-5.5731,0.2196
-4.5538,-0.1772,-7.8434,-0.578,-5.8131,0.206
-5.1044,-0.0982,-7.6184,-0.5588,-6.0951,0.1977
-5.3702,0.0551,-7.4531,-0.5204,-6.3522,0.1873
-5.4827,0.0503,-7.4148,-0.4783,-6.6474,0.1857
-5.6048,0.1532,-7.252,-0.3757,-6.9637,0.129
-5.8466,0.2514,-6.6726,-0.2606,-7.1409,0.0933
-6.5266,0.3759,-6.2704,-0.15,-7.5097,0.0682
-5.6862,0.3855,-5.8323,0.0392,-7.7306,0.0861
-5.9496,0.0144,-4.9009,0.0317,-7.8132,0.1274
-6.6846,-0.4022,-4.4963,-0.1247,-7.8012,0.0895
-7.9392,-0.5028,-3.9002,-0.3008,-7.6856,0.0221
-8.7532,-0.2251,-3.3303,-0.3637,-7.5318,-0.0051
-9.3805,-0.1437,-3.0981,-0.3677,-7.2385,0.0173
-10.5321,-0.0048,-2.8946,-0.3435,-7.0232,0.0376
-9.8521,-0.0622,-3.0478,-0.284,-6.9432,0.0424
-9.5361,-0.1604,-3.0861,-0.1599,-6.697,0.0618
-8.8945,-0.0766,-3.0023,-0.0709,-6.4172,0.0554
-9.1913,-0.103,-2.5762,-0.0474,-6.037,0.0493
-9.5241,-0.0168,-2.0853,-0.0461,-5.6594,0.0477
-10.0173,0.0838,-1.6592,-0.0666,-5.2288,0.0701
-10.6997,0.0934,-1.3503,-0.0895,-4.7572,0.0786
-11.2144,0.1915,-1.2043,-0.069,-4.3079,0.0725
-11.2049,0.2538,-1.3168,-0.0373,-3.8419,0.0767
-11.1163,0.1437,-1.3886,-0.0301,-3.3574,0.0695
-10.7978,0.0168,-1.4269,0.0029,-2.9018,0.0663
-10.3525,0.0934,-1.3527,0.077,-2.4149,0.0861
-10.2783,0.1844,-1.2833,0.1215,-1.9793,0.1124
-10.0533,0.3256,-1.233,0.1825,-1.6121,0.1082
-9.9599,0.3017,-1.1181,0.2012,-1.2468,0.129
-10.1586,0.3448,-1.2378,0.2145,-0.9196,0.1354
-9.979,0.2634,-0.9912,0.2188,-0.6619,0.1633
-10.2568,0.0311,-0.9409,0.1641,-0.376,0.1575
-10.1969,0.0096,-1.0918,0.1647,-0.1935,0.1148
-9.991,0.0263,-1.166,0.1966,0.0011,0.0797
-9.7444,0.0359,-1.0463,0.2017,0.1311,0.0781
-9.663,-0.0192,-1.0056,0.1567,0.1801,0.0693
-9.4044,-0.103,-1.1492,0.1196,0.1524,0.0328
-9.1961,-0.0622,-1.0223,0.0994,0.0959,-0.0085
-8.8921,-0.103,-0.9673,0.0434,0.0373,-0.012
-8.8897,-0.0766,-0.8739,-0.0139,-0.0203,-0.0264
-8.9615,-0.0694,-0.9673,-0.0837,-0.0778,-0.0349
-9.1698,0.0096,-0.9313,-0.1282,-0.1295,-0.0456
-9.323,0.0551,-0.917,-0.1684,-0.1884,-0.0589
-9.1578,0.0622,-1.0008,-0.1873,-0.2515,-0.0637
-9.1123,0.1532,-1.0271,-0.1943,-0.2899,-0.0613
-9.2871,0.1173,-0.9768,-0.2073,-0.311,-0.0605
-9.4667,-0.0144,-1.0702,-0.2118,-0.3142,-0.0586
-9.5792,-0.012,-1.154,-0.2129,-0.3046,-0.0586
-9.6319,-0.0742,-1.1684,-0.2062,-0.2558,-0.0578
-9.6462,-0.0527,-1.1229,-0.1905,-0.2049,-0.0528
-9.596,-0.0311,-1.1971,-0.1807,-0.1503,-0.0442
-9.7516,-0.0239,-1.1325,-0.1799,-0.0938,-0.0373
-9.9048,-0.012,-1.0942,-0.1729,-0.105,-0.0362
-9.5744,-0.0239,-1.0894,-0.1647,-0.1154,-0.0432
-9.5864,-0.0575,-1.0104,-0.1617,-0.1082,-0.0464
-9.5792,-0.0958,-0.9529,-0.1617,-0.1295,-0.0448
-9.5241,-0.0407,-0.9601,-0.1577,-0.1553,-0.0474
-9.5624,-0.0934,-0.8547,-0.1601,-0.1692,-0.0461
-9.6414,-0.0383,-0.8404,-0.1751,-0.1828,-0.0504
-9.6941,-0.0215,-0.8428,-0.1977,-0.1884,-0.056
-9.5481,-0.0551,-0.747,-0.2153,-0.1969,-0.065
-9.7205,-0.0311,-0.6871,-0.2276,-0.1828,-0.0754
-9.7133,-0.0192,-0.68,-0.2419,-0.1966,-0.0879
-9.4691,-0.0599,-0.8811,-0.2521,-0.2017,-0.1007
-9.4212,-0.0072,-0.8404,-0.2635,-0.1996,-0.1103
-9.3039,-0.1269,-0.8356,-0.2801,-0.2249,-0.1215
-9.2392,-0.1173,-0.826,-0.2875,-0.2318,-0.1311
-9.4092,-0.2825,-0.7877,-0.3198,-0.2393,-0.134
-9.5696,-0.2418,-0.7542,-0.3328,-0.2481,-0.1452
-9.7133,-0.2155,-0.7398,-0.3435,-0.2395,-0.1524
-9.9335,-0.1149,-0.5698,-0.3584,-0.2126,-0.1652
-9.924,-0.012,-0.7422,-0.3717,-0.1964,-0.1727
-9.8641,-0.0168,-0.7446,-0.3829,-0.1684,-0.1753
-9.8067,0.0455,-0.6297,-0.3824,-0.1434,-0.1812
-9.8234,0.079,-0.498,-0.3757,-0.1151,-0.1817
-9.8928,-0.0359,-0.4357,-0.3794,-0.0938,-0.1887
-9.8474,-0.1269,-0.4693,-0.3778,-0.1015,-0.2028
-9.6822,-0.2274,-0.4166,-0.3901,-0.0991,-0.2134
-9.6654,-0.3089,-0.2682,-0.4106,-0.1015,-0.2262
-9.6343,-0.2945,-0.316,-0.429,-0.1236,-0.2433
-9.572,-0.2825,-0.237,-0.4578,-0.1394,-0.2558
-9.6127,-0.2251,-0.2993,-0.4911,-0.1508,-0.2641
-9.7205,-0.1891,-0.3184,-0.53,-0.2017,-0.2713
-9.5409,-0.1389,-0.3831,-0.5545,-0.2473,-0.2878
-9.5265,-0.1101,-0.4238,-0.5753,-0.2547,-0.3011
-9.6391,-0.0359,-0.5124,-0.5937,-0.2753,-0.3099
-9.6486,-0.1389,-0.5339,-0.6142,-0.2966,-0.3168
-9.7396,-0.1341,-0.4214,-0.6347,-0.3086,-0.324
-9.6965,-0.146,-0.4788,-0.6443,-0.315,-0.3312
-9.7205,-0.1915,-0.3855,-0.6486,-0.2936,-0.3339
-9.7683,-0.1437,-0.2993,-0.6512,-0.2723,-0.3341
-9.8952,-0.2753,-0.2921,-0.6582,-0.2478,-0.3368
-9.8928,-0.3735,-0.1772,-0.6608,-0.2523,-0.3483
-9.7564,-0.4262,-0.1413,-0.6632,-0.2531,-0.3584
-9.6678,-0.407,-0.0239,-0.6797,-0.2374,-0.3629
-9.7516,-0.3903,0.1939,-0.7037,-0.2318,-0.3675
-9.8043,-0.3591,0.2801,-0.7152,-0.2443,-0.3725
-9.7181,-0.3304,0.3903,-0.7261,-0.2518,-0.3808
-9.675,-0.3639,0.4645,-0.7354,-0.2577,-0.3917
-9.6391,-0.4597,0.5267,-0.7498,-0.2851,-0.4005
-9.5313,-0.5076,0.6129,-0.7762,-0.3166,-0.4165
-9.4739,-0.5052,0.6919,-0.8052,-0.3317,-0.4301
-9.4954,-0.4932,0.7374,-0.8436,-0.3589,-0.4338
-9.4571,-0.4357,0.6632,-0.8833,-0.3992,-0.4338
-9.4882,-0.3472,0.5243,-0.9249,-0.4133,-0.4365
-9.6031,-0.3089,0.395,-0.9606,-0.4255,-0.4407
-9.6534,-0.3065,0.2777,-1.0008,-0.4183,-0.4434
-9.5888,-0.3591,0.3184,-1.0131,-0.3941,-0.4551
-9.3494,-0.419,0.4094,-1.0072,-0.3669,-0.4634
-9.1099,-0.5076,0.4836,-1.0,-0.3195,-0.4647
-9.0405,-0.6608,0.577,-1.0064,-0.2819,-0.4591
-9.0884,-0.8356,0.6704,-1.0219,-0.2486,-0.4543
-9.0621,-0.8882,0.8667,-1.0443,-0.222,-0.4535
-9.1075,-0.9481,1.2498,-1.0776,-0.2302,-0.4636
-9.2033,-0.8811,1.7597,-1.1162,-0.2302,-0.4775
-9.2488,-0.7494,2.3679,-1.1706,-0.2419,-0.4839
-9.5289,-0.7159,2.739,-1.2372,-0.2302,-0.497
-9.6941,-0.6201,3.0526,-1.3376,-0.2238,-0.5071
-9.7444,-0.6153,3.2154,-1.4341,-0.2334,-0.5164
-9.8019,-0.4812,3.2657,-1.5268,-0.2334,-0.5183
-9.2416,-0.3879,3.5985,-1.6387,-0.2268,-0.567
-11.0899,-0.17,-0.8164,-1.6689,-0.279,-0.5297
-6.3351,-0.9146,-20.3028,-1.765,-1.2835,-0.9435
-2.6911,1.3144,-40.146,-1.278,-1.4416,0.0043
-3.1508,6.6272,-32.3672,-1.0437,-2.2159,-0.061
0.759,6.6535,-21.0546,0.0101,-2.0006,-0.267
-5.6096,2.5283,-9.9,1.4786,-1.607,0.0802
-11.1235,-4.1827,-2.0159,2.0139,-1.3201,-0.141
-13.9271,-6.1339,1.8244,1.6401,-0.6843,-0.2244
-14.7172,-3.8283,3.2753,0.6773,-0.1066,-0.0805
-13.4937,-0.9194,2.0973,-0.0418,0.2427,0.0133
-12.3948,1.7502,1.7526,-0.202,0.4199,0.0317
-11.8752,2.9497,0.9481,-0.0528,0.5537,-0.0357
-10.6686,2.7054,-0.2011,0.2086,0.5857,-0.0685
-8.5617,1.5419,-0.7063,0.4018,0.4988,-0.0432
-6.4524,0.5171,-0.8978,0.4634,0.3288,-0.0091
-5.4851,-0.0718,-0.9242,0.3949,0.0234,-0.0293
-5.4229,-0.6129,-0.419,0.2188,-0.4202,-0.0472
-6.2441,-1.0343,-0.2203,0.0544,-0.7855,-0.0597
-7.5369,-1.2689,0.1197,-0.0791,-0.9289,-0.0901
-8.7676,-1.5993,0.1652,-0.1956,-0.85,-0.1143
-9.5026,-1.7334,0.0144,-0.2691,-0.5921,-0.134
-9.8545,-1.6424,-0.2442,-0.2734,-0.2316,-0.1751
-9.8354,-1.5514,-0.3759,-0.2225,0.1745,-0.2078
-9.2105,-1.3264,-0.3615,-0.1311,0.5401,-0.2062
-8.6287,-1.3336,-0.2538,-0.0645,0.8084,-0.1865
-8.3534,-1.3767,-0.3089,-0.0701,0.9419,-0.1708
-8.2384,-1.3312,-0.4645,-0.1148,0.9395,-0.1764
-8.2289,-1.2929,-0.6919,-0.137,0.8255,-0.1924
-7.8434,-1.2234,-0.8547,-0.1327,0.6712,-0.1996
-7.6495,-1.0678,-0.8523,-0.1207,0.5372,-0.1892
-7.5776,-1.0056,-0.759,-0.1263,0.4191,-0.1703
-7.3837,-0.9433,-0.7063,-0.1394,0.3182,-0.137
-7.4723,-0.8428,-0.7566,-0.1306,0.2675,-0.1007
-7.4675,-0.8404,-0.7087,-0.1319,0.194,-0.0522
-7.6351,-0.5842,-0.8619,-0.1037,0.1591,-0.0203
-7.9895,-0.6345,-1.0127,-0.0727,0.129,0.0093
-8.2887,-0.7973,-1.2234,-0.0634,0.1191,0.0261
-8.6455,-0.8811,-1.4892,-0.0778,0.1498,0.0442
-8.9663,-0.9457,-1.8771,-0.0837,0.2318,0.065
-9.2703,-1.008,-2.217,-0.0738,0.3491,0.0858
-9.2895,-0.9146,-2.5474,-0.0509,0.4847,0.1071
-9.4475,-0.929,-2.7677,-0.0408,0.6776,0.1442
-9.335,-0.9529,-3.0095,-0.1074,0.8769,0.1143
-9.0932,-0.7877,-3.3184,-0.1002,1.0587,0.1159
-9.074,-0.7111,-3.3686,-0.0053,1.247,0.1727
-9.2943,-0.5602,-3.2034,0.1412,1.4589,0.231
-9.7348,-0.5339,-2.9401,0.2142,1.6244,0.2694
-9.5146,-0.4956,-2.8395,0.2345,1.6798,0.2441
-9.2249,-0.6153,-2.6863,0.284,1.764,0.2092
-9.0094,-0.5698,-2.5235,0.3912,1.8221,0.2172
-8.8585,-0.5842,-2.1979,0.4895,1.8714,0.2619
-9.0908,-0.6752,-1.9417,0.5484,1.9196,0.3024
-9.1291,-0.6656,-1.901,0.582,1.9369,0.3112
-8.9807,-0.6321,-1.8196,0.5894,2.0051,0.3384
-9.0453,-0.7111,-1.8699,0.5899,2.1035,0.384
-9.1961,-0.7446,-2.0399,0.6078,2.2127,0.4293
-9.4906,-0.6105,-2.0853,0.6408,2.3531,0.4639
-9.7947,-0.7183,-2.4684,0.6406,2.5303,0.5137
-10.0054,-0.668,-2.9497,0.6875,2.7619,0.5276
-10.161,-0.486,-3.0813,0.7226,3.0558,0.5702
-10.2735,-0.5698,-3.4668,0.7099,3.3894,0.6217
-10.1682,-0.5722,-3.5817,0.7821,3.7529,0.66
