ax,ay,az,gx,gy,gz
-0.9074,-1.1971,-9.6343,1.7677,-1.7968,-1.627
-0.7709,-1.1779,-9.8019,1.7677,-1.7968,-1.627
-0.5171,-1.1205,-9.9503,1.7677,-1.7968,-1.627
-0.5171,-1.0511,-10.1394,1.7677,-1.7968,-1.627
-0.2442,-1.0367,-10.252,1.7677,-1.7968,-1.627
-0.4429,-1.1325,-10.1514,1.7677,-1.7968,-1.627
-0.5914,-1.2258,-10.0221,1.7677,-1.7968,-1.627
-0.5028,-1.3312,-9.8641,1.7677,-1.7968,-1.627
-0.2298,-1.4198,-10.003,1.7677,-1.7968,-1.627
-0.103,-1.3671,-10.0724,1.7677,-1.7968,-1.627
-0.1317,-1.2426,-10.149,1.7677,-1.7968,-1.627
-0.2203,-1.1923,-10.2544,1.7677,-1.7968,-1.627
-0.2849,-1.0918,-10.3358,1.7677,-1.7968,-1.627
-0.3232,-1.1061,-10.4459,1.7677,-1.7968,-1.627
-0.5555,-1.0367,-10.5752,1.7677,-1.7968,-1.627
-0.6847,-1.1013,-10.6039,1.7677,-1.7968,-1.627
-0.8452,-1.0439,-10.5441,1.7677,-1.7968,-1.627
-0.7853,-1.1109,-10.4531,1.7677,-1.7968,-1.627
-0.8691,-1.1564,-10.5129,1.7677,-1.7968,-1.627
-0.9002,-1.1253,-10.422,1.7677,-1.7968,-1.627
-1.0223,-1.1851,-10.3286,1.7677,-1.7968,-1.627
-0.8954,-1.2139,-10.1873,1.7677,-1.7968,-1.627
-0.7278,-1.2881,-10.2663,1.7677,-1.7968,-1.627
-0.7111,-1.2594,-10.2256,1.7677,-1.7968,-1.627
-0.6321,-1.3264,-9.9335,1.7677,-1.7968,-1.627
-0.6656,-1.2713,-9.7971,1.7677,-1.7968,-1.627
-0.7063,-1.257,-9.8665,1.7677,-1.7968,-1.627
-0.5004,-1.2426,-9.8737,1.7677,-1.7968,-1.627
-0.735,-1.2881,-10.0221,1.7677,-1.7968,-1.627
-0.6464,-1.2378,-10.0652,1.7677,-1.7968,-1.627
-0.4573,-1.3001,-10.0006,1.7677,-1.7968,-1.627
-0.4477,-1.2474,-10.2424,1.7677,-1.7968,-1.627
-0.7925,-1.1181,-10.5105,1.7674,-1.7968,-1.627
-0.9098,-0.9625,-10.5201,1.7674,-1.7968,-1.627
-0.9649,-0.9529,-10.5632,3.2138,1.3241,-5.2637
-0.7183,-1.1947,-10.6757,0.2364,-0.1252,-0.3728
-0.6009,-1.1851,-10.5824,-0.1212,-0.1897,-0.0245
-0.5746,-1.1851,-10.5225,-0.1316,-0.2377,-0.0056
-0.4693,-1.1181,-10.4507,-0.0312,0.0554,-0.02
-0.2562,-1.1899,-10.3477,-0.0328,0.0807,-0.0264
-0.2777,-1.1396,-10.2927,-0.0232,0.0837,-0.0205
-0.2107,-1.1085,-10.2855,-0.0293,0.0703,-0.0269
-0.2753,-1.1229,-10.3166,-0.0442,0.0482,-0.0389
-0.3519,-1.1444,-10.3956,-0.0663,0.0029,-0.0376
-0.3112,-1.2378,-10.3142,-0.0775,-0.025,-0.0261
-0.3017,-1.2043,-10.4387,-0.0637,-0.0224,-0.0253
-0.431,-1.1013,-10.6087,-0.0461,-0.0152,-0.0192
-0.3998,-1.0487,-10.7524,-0.0296,-0.0181,-0.0083
-0.3759,-1.0391,-10.6734,-0.0189,-0.0043,-0.0045
-0.1245,-1.2522,-10.4986,-0.045,0.0056,0.0101
-0.103,-1.2498,-10.5249,-0.0759,0.0141,0.0104
-0.249,-1.1588,-10.4124,-0.0938,-0.0221,-0.0024
-0.3112,-1.1037,-10.082,-0.1087,-0.0829,-0.0125
-0.4334,-1.0511,-9.7923,-0.0967,-0.1023,-0.0091
-0.6584,-0.9625,-9.5648,-0.0504,-0.081,-0.0075
-0.9505,-0.9553,-9.6869,-0.0112,-0.0493,-0.0085
-1.1229,-0.996,-9.9216,0.0181,-0.0045,-0.012
-1.0247,-1.0606,-10.0844,0.0472,0.0538,0.0064
-0.8164,-1.0487,-10.2783,0.0743,0.1196,0.0429
-0.6201,-1.0367,-10.4962,0.0781,0.1716,0.0618
-0.3065,-1.0918,-10.4555,0.0762,0.1977,0.0666
-0.1724,-1.2426,-10.5058,0.0757,0.2012,0.0626
-0.1652,-1.3096,-10.3501,0.0751,0.1729,0.0632
0.0311,-1.2546,-10.3094,0.0829,0.1396,0.0629
0.0,-1.1588,-10.501,0.0861,0.1247,0.0597
-0.1317,-1.0463,-10.5608,0.0885,0.0919,0.0576
-0.1891,-0.984,-10.5704,0.0869,0.0333,0.0568
-0.2514,-1.0391,-10.4028,0.0823,-0.0298,0.0482
-0.2682,-1.1037,-10.4172,0.0685,-0.089,0.0304
-0.2945,-1.1396,-10.228,0.0458,-0.1167,0.0163
-0.5004,-1.1516,-10.0987,0.0261,-0.126,0.0008
-0.723,-1.0606,-10.1394,0.0258,-0.1274,-0.0029
-0.8954,-0.9553,-10.2472,0.0336,-0.1236,-0.0037
-0.8691,-0.9697,-10.3238,0.036,-0.1039,-0.0064
-0.8021,-1.0654,-10.1921,0.04,-0.0608,0.0029
-0.6297,-1.1037,-10.1227,0.0533,0.0032,0.0187
-0.4549,-1.0894,-10.3142,0.0669,0.0485,0.0384
-0.3328,-1.0846,-10.4196,0.0717,0.0589,0.0373
-0.3424,-1.0654,-10.307,0.0754,0.0163,0.0144
-0.6081,-0.9816,-10.4244,0.0695,-0.0552,-0.0184
-0.8811,-0.8691,-10.4938,0.0397,-0.1322,-0.0469
-1.0223,-0.9625,-10.5105,-0.0008,-0.1857,-0.0576
-1.0487,-1.0678,-10.5489,-0.036,-0.1745,-0.0386
-1.0582,-1.2306,-10.6326,-0.0698,-0.13,-0.0139
-0.8882,-1.2929,-10.6614,-0.1268,-0.1058,0.0008
-0.68,-1.3623,-10.501,-0.1924,-0.0797,-0.0013
-0.5291,-1.2857,-10.4507,-0.2414,-0.0807,-0.0048
-0.4477,-1.245,-10.4531,-0.2697,-0.1124,-0.0088
-0.2586,-1.1899,-10.3334,-0.2742,-0.1412,-0.0136
-0.1915,-1.2139,-9.9742,-0.2777,-0.1308,-0.0173
-0.1508,-1.3671,-9.6438,-0.2811,-0.1271,-0.0338
0.0814,-1.403,-9.4475,-0.2686,-0.11,-0.0634
0.0575,-1.3838,-9.3661,-0.2257,-0.0733,-0.0898
-0.3831,-1.1756,-9.5313,-0.1937,-0.0466,-0.1013
-0.7781,-0.905,-9.7109,-0.1695,-0.0562,-0.1026
-0.9385,-0.7805,-9.8689,-0.1436,-0.0693,-0.0879
-0.905,-0.668,-10.0437,-0.1053,-0.0661,-0.0592
-0.8691,-0.6081,-10.2975,-0.0938,-0.0314,-0.0357
-0.8356,-0.6991,-10.3765,-0.1021,0.0075,-0.0274
-0.6129,-0.8595,-10.4483,-0.0965,0.0141,-0.0397
-0.328,-1.0056,-10.5082,-0.0973,0.0317,-0.045
-0.1484,-1.1133,-10.4651,-0.1303,-0.0256,-0.0288
0.2897,-1.5107,-10.0772,-0.2126,-0.1242,-0.0592
0.5195,-1.6185,-9.6151,-0.2265,-0.219,-0.1023
0.1628,-1.2426,-9.5792,-0.2102,-0.3168,-0.1394
-0.3089,-0.8739,-9.9096,-0.1644,-0.4002,-0.1761
-0.5626,-0.7398,-10.1011,-0.089,-0.3824,-0.1772
-0.8499,-0.6871,-9.9934,-0.0266,-0.2739,-0.1676
-1.1588,-0.6704,-9.56,0.0141,-0.1966,-0.1697
-1.5586,-0.5195,-10.7811,0.0418,-0.1311,-0.1919
-1.8028,-0.5962,-11.6119,0.0573,-0.0448,-0.0794
-1.1516,-1.0151,-11.2288,0.0192,-0.0346,-0.0258
-0.395,-1.2833,-10.5704,-0.0871,0.0306,-0.0629
-0.2993,-1.2977,-10.3046,-0.2081,0.1127,-0.125
-0.7638,-0.9361,-10.422,-0.291,0.1324,-0.1767
-1.3934,-0.498,-10.8793,-0.2984,0.1268,-0.1759
-1.7047,-0.2969,-11.0923,-0.2758,0.1332,-0.1492
-1.6568,-0.4238,-10.963,-0.2785,0.1447,-0.1191
-0.9242,-0.7661,-10.0485,-0.3158,0.1943,-0.1042
-0.3807,-1.0223,-9.4475,-0.3195,0.2899,-0.1055
-0.5578,-0.7997,-9.8976,-0.3277,0.3056,-0.1162
-0.6153,-0.5626,-10.4531,-0.3547,0.2606,-0.0999
-0.5315,-0.4669,-10.3525,-0.3635,0.2134,-0.0695
-0.2682,-0.5555,-9.9383,-0.3493,0.1801,-0.0517
0.1963,-0.6536,-9.6343,-0.3,0.1977,-0.0685
0.0192,-0.6177,-9.5433,-0.2334,0.2145,-0.0829
-0.3328,-0.486,-9.6079,-0.1796,0.1689,-0.0701
-0.4788,-0.34,-9.3829,-0.1282,0.1119,-0.0368
-0.3974,-0.3065,-9.0764,-0.0525,0.081,0.0141
-0.2514,-0.1796,-8.8897,0.0634,0.0965,0.048
-0.2059,-0.091,-9.0525,0.1988,0.1282,0.0634
-0.2322,-0.17,-9.347,0.32,0.1239,0.0807
-0.1915,-0.2849,-9.7899,0.4303,0.0879,0.1029
-0.2322,-0.4669,-10.4675,0.5121,0.0338,0.1239
-0.2083,-0.6919,-11.643,0.5529,-0.0445,0.1324
-0.1293,-0.8236,-12.5265,0.5287,-0.1175,0.1378
-0.1413,-0.9864,-12.3589,0.4365,-0.2097,0.1412
-0.2322,-1.0175,-11.5472,0.3158,-0.2758,0.1156
-0.7207,-0.8763,-10.9535,0.2539,-0.2987,0.1039
-1.0774,-0.656,-10.7188,0.2398,-0.3291,0.0981
-1.2881,-0.5411,-11.0947,0.2467,-0.2638,0.1143
-1.4629,-0.3711,-11.3772,0.2793,-0.1364,0.1303
-1.6735,-0.2825,-11.5712,0.304,0.0147,0.1575
-1.719,-0.3567,-11.7603,0.3187,0.1268,0.1903
-1.5993,-0.7159,-11.6215,0.2936,0.2038,0.2289
-0.7901,-1.3838,-10.8026,0.2382,0.2654,0.2673
0.4118,-2.0255,-9.5193,0.2014,0.4069,0.2867
0.9218,-2.0375,-8.6957,0.1945,0.5862,0.2502
0.7542,-1.6735,-8.5186,0.1916,0.7,0.1953
0.2873,-1.1564,-8.8011,0.2462,0.7306,0.1548
-0.067,-0.6488,-9.2488,0.3933,0.7099,0.1503
0.0024,-0.4645,-9.8378,0.586,0.745,0.1548
0.2873,-0.6177,-10.4675,0.7589,0.8564,0.1359
0.3879,-0.9313,-10.8457,0.8404,0.939,0.1015
0.4717,-1.2953,-11.1977,0.8394,0.8996,0.0658
0.5914,-1.6376,-11.4754,0.7885,0.7663,0.0229
0.577,-1.9393,-11.485,0.7008,0.566,-0.0434
0.3759,-1.992,-11.4203,0.5788,0.307,-0.1228
0.067,-1.8244,-11.3509,0.425,0.0373,-0.1751
-0.3184,-1.5754,-11.4203,0.2713,-0.1884,-0.1876
-0.5076,-1.2402,-11.2336,0.1569,-0.303,-0.1612
-0.4788,-1.008,-10.6326,0.1268,-0.2364,-0.1045
-1.4126,-0.6608,-10.082,0.1711,-0.0072,-0.0592
-1.5634,-0.3519,-9.9982,0.1807,0.2033,-0.1055
-0.3352,-1.1253,-10.2208,0.2441,0.6891,-0.1031
0.9864,-1.6113,-9.6031,0.5159,1.4091,-0.141
1.4126,-2.0782,-9.1363,0.2995,-0.1138,-0.093
1.1325,-1.81,-9.6486,0.2785,-0.2086,-0.048
0.6033,-0.9649,-10.9056,0.2763,-0.2108,-0.0458
0.3711,-0.2969,-11.7196,0.2753,-0.2126,-0.0469
0.1006,-0.1053,-11.983,0.2739,-0.2092,-0.0458
-1.1277,0.0958,-13.2711,0.2747,-0.2102,-0.0461
-2.3822,-0.2131,-12.2703,0.2734,-0.2108,-0.0482
-2.6217,-1.5634,-10.8721,0.2737,-0.211,-0.0469
-3.4237,-2.3152,-12.4475,0.2761,-0.2118,-0.0445
-3.225,-1.6807,-13.69,0.2753,-0.2116,-0.044
-1.8148,-1.0822,-12.9598,0.2739,-0.2132,-0.0416
-2.1763,-1.3312,-11.5161,0.3624,0.1636,-0.0831
-0.7135,-1.585,-11.2887,-0.0658,-0.2955,0.1514
-0.4501,-1.0654,-12.2224,0.0949,-0.1042,0.2286
-3.565,-1.2953,-11.5472,0.2236,0.0448,0.211
-2.8036,-1.6017,-9.7181,0.2393,0.2193,-0.0075
-1.8771,-2.3104,-7.5537,0.1583,0.8719,-0.2158
-0.8882,-2.5043,-6.9576,0.1903,1.4885,-0.2012
0.4669,-2.2075,-7.5465,0.4002,2.5676,-0.0986
0.7159,-1.5969,-8.3677,0.5092,0.7759,-0.1535
0.6608,-1.2402,-9.0956,0.3461,-0.0901,-0.1964
0.6009,-1.3384,-9.4739,0.2942,-0.2033,-0.1175
0.5674,-1.585,-9.8881,0.2843,-0.2156,-0.101
0.5339,-1.9034,-10.173,0.2801,-0.218,-0.0965
0.9409,-1.6688,-10.3525,0.2787,-0.2204,-0.0895
1.1133,-1.6376,-10.0556,0.2801,-0.218,-0.0719
1.0008,-1.4676,-9.7348,0.2793,-0.2164,-0.0706
0.7973,-1.2977,-9.4379,0.2777,-0.2153,-0.0733
0.6105,-1.2713,-9.4595,0.2758,-0.2161,-0.0703
0.5483,-1.2641,-9.3757,0.2761,-0.2156,-0.064
0.4908,-1.4174,-9.3948,0.2761,-0.214,-0.0592
0.5842,-1.415,-9.2177,0.2766,-0.2174,-0.0629
0.735,-1.3096,-9.0836,0.2753,-0.2142,-0.0581
0.8332,-1.233,-9.2129,0.2769,-0.214,-0.0525
0.7829,-1.3024,-9.4092,0.2758,-0.2142,-0.0514
1.0056,-1.2163,-9.7252,0.2777,-0.2126,-0.0514
1.0558,-0.9601,-9.6726,0.2753,-0.2126,-0.0477
0.68,-0.8236,-9.742,0.2763,-0.2142,-0.0458
0.4429,-0.9481,-9.8402,0.275,-0.2134,-0.0464
0.3879,-1.154,-9.8474,0.2763,-0.2121,-0.0453
0.4741,-1.2857,-9.8689,0.2747,-0.2118,-0.0474
0.6273,-1.3144,-9.9886,0.2758,-0.2118,-0.0461
0.6273,-1.3216,-9.991,0.2737,-0.2116,-0.0474
0.7949,-1.3599,-9.8521,0.2755,-0.2126,-0.0469
0.9194,-1.3599,-9.6941,0.2761,-0.2129,-0.0466
0.7111,-1.2833,-9.7516,0.2755,-0.2121,-0.0461
0.3831,-1.0558,-9.9623,0.2769,-0.2116,-0.0469
-0.0144,-0.929,-10.3142,0.2734,-0.21,-0.0461
-0.3496,-0.9409,-10.5489,0.2774,-0.2124,-0.0453
-0.6536,-1.0678,-10.7739,0.2747,-0.2124,-0.0453
-0.8188,-1.0822,-10.8266,0.2755,-0.2116,-0.0458
-0.8523,-1.0894,-10.7643,0.2745,-0.2126,-0.0466
-0.747,-1.0367,-10.7164,0.275,-0.211,-0.0461
-0.6919,-1.0487,-10.7188,0.2753,-0.2134,-0.0458
-0.5411,-0.9577,-10.659,0.2745,-0.2129,-0.0456
-0.419,-0.9122,-10.6039,0.2766,-0.2134,-0.0458
-0.3424,-1.0175,-10.5129,0.2742,-0.2124,-0.0474
-0.2538,-1.1109,-10.5153,0.2753,-0.2118,-0.0458
-0.1796,-1.2258,-10.4962,0.2742,-0.214,-0.0482
-0.0958,-1.2354,-10.4579,0.2753,-0.214,-0.0482
-0.0742,-1.2043,-10.4459,0.2739,-0.2134,-0.0509
-0.0503,-1.1756,-10.3022,0.2761,-0.2134,-0.052
-0.0072,-1.1995,-10.2376,0.2753,-0.2134,-0.0514
0.0239,-1.2689,-10.2376,0.2766,-0.215,-0.0674
-0.0622,-1.2785,-10.2137,0.279,-0.2158,-0.0773
-0.1389,-1.2498,-10.2615,0.2811,-0.2129,-0.0925
-0.1796,-1.2689,-10.2735,0.2862,-0.2084,-0.1362
-0.1748,-1.2665,-10.3046,0.3,-0.1921,-0.1753
-0.0622,-1.3096,-10.4627,0.3038,-0.1769,-0.1785
0.0144,-1.2043,-10.5129,0.3147,-0.1628,-0.1937
0.0239,-1.1181,-10.5058,0.3312,-0.1029,-0.2049
-0.1053,-1.0056,-10.5417,0.364,0.0128,-0.2102
-0.2897,-1.0367,-10.6087,0.3725,0.0498,-0.1948
-0.5531,-0.9888,-10.6662,0.3768,0.0946,-0.1937
-0.7494,-0.9409,-10.6973,0.4146,0.2598,-0.1783
-0.7709,-0.9385,-10.7117,0.4604,0.5383,-0.1556
-0.7302,-1.0127,-10.8362,0.4596,0.5526,-0.1519
-0.668,-1.0487,-10.8697,0.4647,0.5849,-0.1458
-0.589,-1.1564,-10.9008,0.4975,0.8764,-0.1338
-0.5267,-1.2282,-10.9463,0.5438,1.251,-0.1159
-0.407,-1.2977,-10.9319,0.5388,1.2169,-0.1114
-0.316,-1.3719,-10.7332,0.5407,1.2068,-0.113
-0.3376,-1.3264,-10.4507,0.5646,1.5023,-0.0885
-0.3783,-1.2282,-10.2496,0.587,1.8519,-0.0826
-0.4405,-1.2282,-10.0844,0.5873,1.7866,-0.0815
-0.5507,-1.1588,-10.137,0.591,1.7816,-0.0895
-0.5243,-1.1325,-10.0317,0.5947,2.0291,-0.0829
-0.5842,-1.0726,-10.1035,0.5873,2.258,-0.073
-0.6608,-1.075,-10.1514,0.6019,2.2809,-0.0866
-0.7135,-1.1253,-10.2137,0.5945,2.2804,-0.0847
-0.6297,-1.0942,-10.2711,0.5849,2.3593,-0.0751
-0.5411,-1.154,-10.3813,0.5758,2.3441,-0.0576
-0.4932,-1.1133,-10.5393,0.5974,2.3598,-0.0738
-0.3807,-1.0965,-10.6279,0.603,2.3518,-0.0821
-0.3041,-1.1349,-10.6231,0.5862,2.3076,-0.0751
-0.1437,-1.1779,-10.5919,0.5718,2.2202,-0.0733
-0.158,-1.2881,-10.6566,0.5844,2.2663,-0.0738
-0.067,-1.2977,-10.5656,0.5921,2.2937,-0.0735
-0.1101,-1.2474,-10.5584,0.5756,2.2308,-0.0775
-0.1317,-1.1684,-10.5153,0.5646,2.116,-0.0653
-0.2801,-1.1037,-10.6087,0.5801,2.1829,-0.0778
-0.3639,-1.1923,-10.6901,0.5918,2.2098,-0.0863
-0.5842,-1.2665,-10.6039,0.5684,2.1216,-0.093
-0.5698,-1.2809,-10.4172,0.5228,1.938,-0.0767
-0.6608,-1.2546,-10.3573,0.5116,1.9569,-0.061
-0.68,-1.1827,-10.343,0.4874,1.8967,-0.0629
-0.6871,-1.1372,-10.2735,0.4415,1.5993,-0.061
-0.7566,-1.142,-10.0628,0.3688,1.2015,-0.057
-0.8332,-1.0056,-9.9551,0.3541,1.0824,-0.0648
-0.929,-0.893,-9.8617,0.3688,0.9755,-0.0709
-1.0439,-0.9457,-9.9335,0.3496,0.7341,-0.0634
-0.9553,-1.1157,-9.7252,0.3235,0.4567,-0.0557
-0.7254,-1.1708,-9.8282,0.3208,0.4626,-0.041
-0.4238,-1.324,-9.8497,0.3336,0.5337,-0.0277
-0.1365,-1.3001,-10.0341,0.3219,0.5167,-0.0048
-0.0048,-1.2857,-10.1442,0.304,0.47,0.0029
-0.0838,-1.1827,-10.3142,0.3192,0.5327,0.0011
-0.3232,-1.2402,-10.398,0.3267,0.5971,-0.0099
-0.3496,-1.1995,-10.5058,0.3166,0.5894,-0.0173
-0.3974,-1.312,-10.5273,0.2854,0.5369,-0.0224
-0.589,-1.2641,-10.6279,0.2579,0.5033,-0.0536
-0.7159,-1.1684,-10.6087,0.215,0.4634,-0.089
-0.9074,-0.996,-10.6039,0.1553,0.3555,-0.1127
-1.1109,-0.8308,-10.6949,0.1069,0.2411,-0.1372
-0.9553,-0.8547,-10.5848,0.0757,0.1764,-0.1458
-0.6081,-0.9816,-10.2663,0.0573,0.138,-0.1372
-0.51,-1.075,-9.833,0.0165,0.1018,-0.1375
-0.5746,-1.2258,-9.7612,-0.0226,0.0083,-0.1511
-0.644,-1.166,-9.754,-0.0458,-0.0818,-0.1524
-0.5914,-1.2091,-9.8474,-0.0501,-0.1567,-0.1335
-0.5602,-1.1875,-9.9,-0.0533,-0.1958,-0.1132
-0.5866,-1.1157,-9.9958,-0.0658,-0.2129,-0.0997
-0.5315,-1.1396,-9.8785,-0.0701,-0.1966,-0.0871
-0.4645,-1.1947,-9.912,-0.0509,-0.1588,-0.0669
-0.4429,-1.2186,-10.1035,-0.0104,-0.0983,-0.0552
-0.4669,-1.2354,-10.252,0.0282,-0.0325,-0.0629
-0.5052,-1.3336,-10.2903,0.029,0.0013,-0.0799
-0.2801,-1.4605,-10.2448,0.0003,0.0264,-0.0773
-0.2705,-1.5395,-10.386,-0.02,0.0344,-0.049
-0.3591,-1.4509,-10.5776,-0.0131,0.0005,-0.0445
-0.5315,-1.2689,-10.7212,-0.0141,0.0008,-0.0581
-0.6608,-1.1181,-10.6901,-0.0203,-0.0013,-0.0826
-0.7015,-1.0678,-10.5919,-0.0296,-0.0133,-0.0986
-0.6632,-1.1109,-10.5824,-0.0405,-0.0203,-0.0975
-0.577,-1.2067,-10.4076,-0.0565,-0.0093,-0.0823
-0.577,-1.3144,-10.2496,-0.0861,-0.0003,-0.0679
-0.5004,-1.245,-9.9886,-0.1031,-0.0019,-0.065
-0.4597,-1.1325,-9.8186,-0.0975,-0.0187,-0.0602
-0.4477,-1.0127,-10.0054,-0.0778,-0.0325,-0.0549
-0.6153,-0.9409,-10.094,-0.0618,-0.0568,-0.0504
-0.7063,-1.0104,-10.1658,-0.0557,-0.0655,-0.0562
-0.6919,-1.1109,-10.1347,-0.052,-0.0397,-0.0538
-0.6273,-1.2067,-10.1466,-0.0445,0.02,-0.0381
-0.6345,-1.2929,-10.3789,-0.0354,0.0922,-0.0237
-0.4453,-1.2857,-10.5441,-0.0328,0.1463,-0.0234
-0.2131,-1.3144,-10.3741,-0.045,0.1943,-0.0258
-0.0407,-1.3815,-10.1778,-0.0624,0.2236,-0.0298
-0.0024,-1.3647,-10.0533,-0.0695,0.2345,-0.0392
-0.0718,-1.257,-10.0676,-0.0682,0.2313,-0.0408
-0.0814,-1.0558,-10.0844,-0.0866,0.2049,-0.0141
0.0311,-0.8164,-10.0293,-0.0695,0.1703,0.0176
0.0575,-0.6488,-10.1825,-0.0277,0.129,0.0418
0.1006,-0.6632,-10.2927,0.0179,0.0762,0.0357
0.1796,-0.9505,-10.0868,0.0376,0.0226,0.016
0.0215,-1.1325,-10.1131,0.0474,-0.0357,-0.0056
-0.1197,-1.1923,-10.343,0.0552,-0.1007,-0.0226
-0.316,-1.2522,-10.3741,0.0509,-0.1732,-0.0344
-0.5435,-1.2833,-10.4315,0.0277,-0.2268,-0.041
-0.6321,-1.2186,-10.3932,0.0005,-0.2515,-0.0469
-0.6991,-1.1708,-10.3238,-0.0149,-0.2289,-0.0549
-0.6895,-1.0894,-10.4291,0.0045,-0.1628,-0.0501
-0.7087,-0.9673,-10.4675,0.0213,-0.0727,-0.0341
-0.6105,-1.0582,-10.4124,0.0027,0.0061,-0.0173
-0.6919,-1.1109,-10.3142,0.0027,0.0749,-0.0288
-0.6895,-1.1372,-10.173,0.0216,0.0839,-0.0477
-0.4597,-1.0343,-10.082,0.0522,0.0975,-0.0626
-0.1963,-0.9936,-10.2113,0.0813,0.1378,-0.0568
-0.2083,-1.0199,-10.3406,0.1159,0.194,-0.0517
-0.1245,-1.0487,-10.4914,0.1428,0.2028,-0.0552
-0.0862,-1.0558,-10.6398,0.1404,0.1599,-0.0501
-0.2107,-1.0942,-10.6734,0.137,0.0855,-0.0546
-0.2777,-1.075,-10.5752,0.1239,0.0205,-0.0624
-0.2394,-1.1013,-10.4818,0.1116,-0.0378,-0.0648
-0.1939,-1.1732,-10.4818,0.0935,-0.053,-0.0549
-0.2562,-1.1708,-10.5632,0.0671,-0.0594,-0.0568
-0.4788,-1.2378,-10.6183,0.0384,-0.0869,-0.0642
-0.6632,-1.2258,-10.635,0.0056,-0.1258,-0.0618
-0.6919,-1.1612,-10.6686,-0.0277,-0.1593,-0.0453
-0.6584,-1.257,-10.6279,-0.061,-0.158,-0.0354
-0.486,-1.2665,-10.6734,-0.0962,-0.1218,-0.0272
-0.3591,-1.3168,-10.6231,-0.1274,-0.0815,-0.0211
-0.2514,-1.2474,-10.4794,-0.162,-0.069,-0.0163
-0.0766,-1.2067,-10.1969,-0.2102,-0.0525,-0.0181
-0.146,-1.1277,-10.0748,-0.2438,-0.0466,-0.0184
-0.3065,-0.984,-9.979,-0.2577,-0.0698,-0.0288
-0.4166,-0.9649,-9.9862,-0.2427,-0.1061,-0.0442
-0.2825,-1.0487,-10.0772,-0.2252,-0.125,-0.0362
-0.2251,-1.1851,-10.0604,-0.231,-0.0863,0.0
-0.2035,-1.1899,-9.8785,-0.2268,-0.0466,0.0136
-0.1915,-1.1588,-9.8641,-0.2321,-0.0413,0.0056
-0.182,-1.0151,-9.9144,-0.2252,-0.0624,-0.0093
-0.3759,-0.7949,-10.1275,-0.2036,-0.0962,-0.012
-0.4788,-0.7302,-10.3358,-0.1833,-0.1314,-0.0013
-0.5148,-0.7949,-10.2759,-0.1692,-0.1452,0.0197
-0.5746,-0.8523,-10.2711,-0.1609,-0.1591,0.025
-0.5578,-0.917,-10.4339,-0.1623,-0.1908,0.0045
-0.3304,-1.0175,-10.4315,-0.1652,-0.2036,-0.0027
-0.2825,-1.1085,-10.2256,-0.17,-0.2161,0.0149
-0.2514,-1.142,-9.9886,-0.1671,-0.2403,0.0163
-0.4405,-0.9697,-10.1778,-0.1506,-0.2467,-0.0011
-0.6728,-0.826,-10.41,-0.1258,-0.2563,0.0032
-0.5315,-0.8428,-10.477,-0.1055,-0.2406,0.0059
-0.2155,-1.0606,-10.3813,-0.0941,-0.1966,0.0184
-0.0575,-1.2186,-10.2855,-0.0949,-0.1495,0.0205
-0.2227,-1.1636,-10.5393,-0.1351,-0.1351,-0.0211
-0.2179,-1.1803,-10.5201,-0.2113,-0.1668,-0.0229
0.0287,-1.2354,-10.1107,-0.3003,-0.2036,-0.0093
0.0575,-1.1037,-9.5265,-0.3451,-0.1761,-0.0352
-0.3711,-0.6823,-9.3805,-0.3408,-0.1692,-0.0616
-0.6177,-0.407,-9.5864,-0.2936,-0.2009,-0.0797
-0.735,-0.3448,-9.6271,-0.2068,-0.198,-0.0655
-0.6943,-0.3567,-9.8665,-0.1162,-0.1855,-0.0525
-0.9816,-0.5459,-9.821,-0.0373,-0.1543,-0.0621
-1.1923,-0.577,-10.963,0.0077,-0.1748,-0.1095
-0.8188,-0.8715,-12.7443,-0.0005,-0.1196,-0.0733
-0.1604,-1.5012,-11.631,-0.1066,-0.0679,0.0357
0.5076,-1.798,-9.7013,-0.2809,-0.1023,-0.0112
0.1963,-1.3096,-9.426,-0.4018,-0.1444,-0.113
-0.5746,-0.5267,-10.0389,-0.4394,-0.2214,-0.145
-1.1732,-0.0287,-10.489,-0.3818,-0.251,-0.1098
-1.4844,-0.0096,-10.7715,-0.2883,-0.2185,-0.0698
-1.2234,-0.3376,-10.963,-0.214,-0.1308,-0.0613
-0.7494,-0.7925,-10.7548,-0.1982,-0.0163,-0.0666
-0.5171,-1.0678,-10.3884,-0.2555,0.0325,-0.0754
-0.4166,-1.0678,-10.1131,-0.3176,0.0338,-0.0855
-0.2777,-1.0223,-9.7612,-0.3373,0.028,-0.0821
-0.2514,-0.8045,-9.663,-0.3139,0.0663,-0.0773
-0.589,-0.4525,-10.1251,-0.2755,0.1037,-0.0797
-0.6943,-0.3496,-10.6279,-0.2539,0.0941,-0.0786
-0.5171,-0.4669,-10.7045,-0.2707,0.0354,-0.0552
0.2777,-0.8475,-10.331,-0.2851,-0.0426,-0.0213
0.0335,-0.6967,-9.8402,-0.3301,-0.1119,-0.0282
-0.182,-0.2274,-10.1083,-0.3022,-0.2212,-0.0671
-0.7039,0.1245,-10.3214,-0.238,-0.3264,-0.0719
-1.1157,0.2538,-10.1035,-0.1663,-0.413,-0.0541
-1.2498,0.2466,-9.8521,-0.0826,-0.4314,-0.0269
-1.5227,0.3304,-10.0413,0.0077,-0.3957,-0.0155
-1.6903,0.2705,-10.4387,0.0903,-0.3517,-0.0125
-1.6903,0.1053,-10.7069,0.1418,-0.3072,-0.0003
-1.4724,-0.2466,-10.4435,0.154,-0.2678,0.0232
-1.2282,-0.498,-9.8785,0.1623,-0.1911,0.0424
-1.1492,-0.4142,-9.3182,0.2081,-0.0938,0.0679
-1.3479,-0.0934,-9.1626,0.2878,-0.0195,0.0877
-1.2833,0.0407,-9.5577,0.3962,0.0421,0.1138
-0.9553,-0.0503,-10.2975,0.5121,0.1074,0.1466
-0.2131,-0.3855,-10.7787,0.5929,0.1617,0.1689
0.2251,-0.7039,-10.5441,0.6187,0.1996,0.1545
0.1915,-0.723,-10.0628,0.6201,0.1716,0.1135
0.0192,-0.5674,-9.6319,0.6659,0.1524,0.0706
-0.3519,-0.3974,-9.5744,0.7957,0.2076,0.0528
-0.8763,-0.3855,-9.9862,0.9505,0.2947,0.0674
-0.9385,-0.6009,-10.7212,1.1149,0.4064,0.0458
-1.4653,-0.8021,-11.1761,1.1053,0.5081,0.089
-1.4844,-1.221,-11.6382,0.9838,0.5036,0.0818
-1.0678,-1.3431,-11.6598,0.83,0.5425,0.0618
-1.0151,-1.3838,-11.5161,0.6971,0.5399,0.0389
-0.8308,-1.3767,-11.6885,0.5974,0.4546,0.0125
-0.6393,-1.2665,-11.904,0.5348,0.3408,-0.0133
-0.3567,-1.2043,-11.6669,0.4759,0.2443,-0.0269
-0.1867,-1.1708,-11.1402,0.4359,0.1487,-0.0344
-0.2682,-1.1612,-10.7404,0.425,0.0807,-0.0565
-0.7015,-1.1301,-10.8002,0.4453,0.0325,-0.0765
-1.166,-1.1037,-11.0947,0.4588,-0.0195,-0.0938
-1.2737,-1.2378,-11.1642,0.4295,-0.0245,-0.0861
-1.0774,-1.4126,-10.9104,0.3688,0.0269,-0.0645
-1.1396,-1.4485,-10.7452,0.3235,0.122,-0.0616
-0.7829,-1.5203,-10.4579,0.3075,0.1799,-0.073
-0.6393,-1.4581,-10.5129,0.3251,0.2547,-0.0853
-0.7518,-1.5012,-10.7548,0.3104,0.3134,-0.1015
-0.7949,-1.3527,-10.8098,0.2902,0.3477,-0.1282
-0.5219,-1.391,-10.5153,0.2761,0.4511,-0.1037
-1.6616,-1.2546,-9.6774,0.2721,0.6312,-0.0496
-1.4629,-1.1684,-9.7252,0.1879,0.6592,-0.1199
-0.1006,-1.4269,-10.3022,0.1162,0.6454,-0.1095
0.9553,-1.9441,-10.1897,0.0546,0.5039,0.0096
1.8938,-2.3176,-9.7181,-0.0389,0.238,0.0056
1.6783,-2.1332,-10.1179,-0.1604,-0.0386,-0.0797
1.2809,-1.4437,-11.5472,-0.218,-0.2838,-0.1455
0.826,-0.5267,-12.3684,-0.1593,-0.4069,-0.1274
0.0838,-0.0359,-11.9926,-0.0346,-0.473,-0.0871
-0.6704,-0.0455,-12.5863,0.0536,-0.5071,-0.1034
-2.0279,-0.4022,-12.5193,0.0051,-0.7083,-0.0986
-2.2601,-1.5395,-9.845,-0.1498,-0.6366,-0.2761
-3.2753,-2.8156,-10.2448,-0.3144,-0.5966,-0.6193
-3.1244,-1.6855,-12.3637,-0.4866,-0.9593,-0.571
-1.4293,-0.8835,-12.0452,-0.603,-1.1993,-0.0285
-2.2984,-0.7422,-11.2719,-0.4266,-1.0011,0.3086
-2.3559,-0.3089,-11.8178,-0.1082,-0.721,0.2798
-2.1189,-0.3974,-12.1051,0.214,-0.2342,0.2443
-2.7174,-1.4054,-11.0325,0.405,0.3158,0.174
-1.9369,-2.569,-9.3326,0.3219,0.9145,0.0637
-0.9122,-3.2441,-7.4244,0.1748,1.3523,-0.0112
1.0582,-2.964,-6.948,0.0837,1.2734,0.0203
1.6999,-2.1021,-7.3287,0.0554,0.9622,0.077
1.3408,-1.4557,-8.2384,0.0874,0.4482,0.0496
0.577,-1.1899,-8.746,0.1085,0.085,-0.0413
-0.0359,-1.4006,-9.0764,0.085,-0.1138,-0.056
-0.2418,-1.5634,-9.4786,0.0224,-0.1252,0.0242
0.1125,-1.5323,-9.8306,-0.0304,-0.0719,0.0839
0.5219,-1.3192,-10.2376,-0.0679,-0.0045,0.1103
0.6823,-1.1229,-10.6063,-0.0677,-0.0621,0.1103
0.6823,-0.7805,-10.6279,-0.0522,-0.1737,0.1095
0.0982,-0.7901,-10.5297,-0.033,-0.3019,0.1244
-0.2921,-0.7326,-10.3765,-0.0032,-0.4149,0.1415
-0.7326,-1.0008,-10.0461,-0.0168,-0.4202,0.1687
-0.9146,-1.1923,-9.4571,-0.0458,-0.3099,0.1697
-0.8116,-1.3096,-8.9567,-0.0626,-0.1527,0.1799
-0.2969,-1.5107,-8.5258,-0.0687,0.0309,0.2094
0.3448,-1.4246,-8.2552,-0.0461,0.1998,0.1919
1.0104,-1.403,-8.0996,-0.0128,0.312,0.1388
1.4892,-1.4054,-8.3103,0.0027,0.3581,0.1106
1.7933,-1.47,-8.4851,-0.0163,0.3219,0.1148
1.7621,-1.5347,-8.7676,-0.0624,0.2646,0.1279
1.4198,-1.5131,-9.1842,-0.0898,0.1772,0.1231
1.1803,-1.2713,-9.3757,-0.0815,0.0999,0.1047
0.7853,-0.9984,-9.5696,-0.0666,0.0405,0.1055
0.261,-0.9146,-9.7612,-0.0589,0.0125,0.1026
-0.1556,-0.8547,-10.2687,-0.0389,-0.0133,0.0906
-0.3998,-0.7973,-10.6422,-0.0234,-0.0408,0.0815
-0.6632,-0.7781,-11.0373,-0.0141,-0.0775,0.0703
-0.8667,-0.8452,-11.3174,-0.0232,-0.1407,0.0517
-0.9385,-0.8547,-11.3461,-0.0309,-0.2089,0.033
-0.9792,-0.9697,-11.157,-0.0341,-0.2558,0.0189
-1.1013,-1.0175,-10.8936,-0.0376,-0.2731,0.0
-1.1109,-1.075,-10.6279,-0.0557,-0.2547,-0.0133
-1.1971,-0.9912,-10.4914,-0.0666,-0.1937,-0.0181
-0.9673,-1.0199,-10.3358,-0.0669,-0.1234,0.0013
-0.6464,-0.9912,-10.2927,-0.0634,-0.0469,0.0128
-0.4166,-1.0391,-10.1514,-0.0538,0.0147,0.0099
-0.1891,-1.1372,-10.2161,-0.0421,0.0349,0.0069
-0.0742,-1.245,-10.173,-0.0376,0.0234,0.0107
-0.012,-1.3479,-10.0772,-0.037,0.0192,0.0125
-0.0192,-1.3527,-10.2208,-0.0368,0.0072,0.0104
-0.1556,-1.312,-10.3549,-0.0389,-0.0131,0.0144
-0.2442,-1.2905,-10.4411,-0.045,-0.0354,0.0258
-0.4022,-1.2402,-10.6063,-0.0493,-0.0466,0.0362
-0.5291,-1.2234,-10.5967,-0.053,-0.057,0.037
-0.5818,-1.1995,-10.6135,-0.0568,-0.0578,0.0405
-0.6249,-1.1636,-10.5632,-0.0568,-0.0378,0.0461
-0.4932,-1.2306,-10.5632,-0.0533,-0.0165,0.0634
-0.4238,-1.2091,-10.6303,-0.0485,0.0133,0.0879
-0.2945,-1.1396,-10.6111,-0.0405,0.008,0.0986
-0.2634,-1.1109,-10.4746,-0.0354,-0.0184,0.1021
-0.1891,-1.0343,-10.3118,-0.0218,-0.0584,0.1061
-0.103,-1.0798,-10.4052,-0.0056,-0.0645,0.1082
-0.1293,-1.0654,-10.422,0.0085,-0.0669,0.093
-0.2155,-1.2234,-10.4746,0.0045,-0.0775,0.0903
-0.2897,-1.2306,-10.6015,-0.0005,-0.1029,0.0941
-0.3639,-1.1253,-10.635,0.0029,-0.1178,0.0821
-0.5387,-1.0678,-10.5058,-0.0003,-0.1122,0.0642
-0.7159,-0.9457,-10.5608,0.0027,-0.121,0.048
-0.9026,-0.9337,-10.6159,0.0101,-0.1138,0.0352
-0.9888,-0.893,-10.8362,0.0248,-0.1132,0.0242
-1.1109,-0.8691,-10.8936,0.036,-0.0935,0.0165
-1.1037,-0.905,-10.9511,0.045,-0.077,0.0104
-1.0463,-0.9433,-10.9008,0.056,-0.0506,0.0128
-0.905,-0.9601,-10.999,0.0581,-0.028,0.0125
-0.8236,-1.0151,-10.9247,0.0565,-0.0176,0.0157
-0.6847,-0.996,-10.7524,0.0605,-0.0269,0.0221
-0.6393,-1.0678,-10.726,0.0616,-0.0528,0.024
-0.6129,-1.0989,-10.5632,0.0655,-0.0845,0.0237
-0.5746,-1.1803,-10.4483,0.0663,-0.1151,0.0189
-0.5507,-1.2809,-10.319,0.0557,-0.1263,0.0155
-0.5674,-1.2665,-10.2783,0.0357,-0.1282,0.0147
-0.4956,-1.2857,-10.1155,0.0203,-0.1266,0.0155
-0.4549,-1.2282,-9.9934,0.0147,-0.1402,0.0179
-0.5219,-1.2139,-10.0437,0.0088,-0.1575,0.0136
-0.5411,-1.1037,-9.9934,0.0101,-0.1633,0.0019
-0.7302,-1.0199,-10.0724,0.0112,-0.1522,-0.0157
-0.7685,-0.9625,-10.0676,0.016,-0.1362,-0.0274
-0.8356,-0.9649,-10.2424,0.0229,-0.1162,-0.0234
-0.838,-0.9625,-10.2951,0.0245,-0.0895,-0.016
-0.7997,-0.9984,-10.3645,0.0282,-0.0562,-0.0216
-0.6776,-0.9697,-10.4148,0.0288,-0.0448,-0.0333
-0.6081,-1.0678,-10.4579,0.028,-0.0442,-0.0344
-0.4501,-1.1109,-10.5082,0.0245,-0.0568,-0.032
-0.4334,-1.166,-10.5656,0.016,-0.0842,-0.0322
-0.4238,-1.1492,-10.4579,0.0085,-0.1458,-0.0298
-0.4334,-1.0965,-10.4459,0.0083,-0.1982,-0.0213
-0.5339,-1.0487,-10.4794,0.0093,-0.2281,-0.0253
-0.68,-1.0822,-10.4052,0.0048,-0.2329,-0.0248
-0.8068,-1.075,-10.4363,-0.0021,-0.2395,-0.0216
-0.8116,-1.0965,-10.4746,-0.0083,-0.2537,-0.0203
-0.8092,-1.0702,-10.3789,-0.0099,-0.287,-0.0125
-0.7685,-1.0894,-10.3238,-0.0141,-0.3115,-0.0069
-0.905,-1.075,-10.252,-0.0218,-0.311,-0.0027
-0.8452,-1.0582,-10.1011,-0.0213,-0.3112,-0.0059
-0.8308,-1.1756,-10.0509,-0.0277,-0.271,0.0
-0.8308,-1.2258,-9.9766,-0.0221,-0.1998,-0.0013
-0.8571,-1.1756,-9.9599,-0.0168,-0.1311,-0.0027
-0.6752,-1.2115,-9.9982,-0.0226,-0.0168,0.0096
-0.5746,-1.1995,-10.0437,-0.012,0.1092,0.0133
-0.4525,-1.2354,-9.6869,0.0077,0.211,0.0152
-0.5315,-1.2737,-9.584,0.0112,0.2689,0.0045
-0.6512,-1.2689,-9.5433,-0.0037,0.2769,-0.0309
-0.7111,-1.233,-9.6151,-0.0354,0.2622,-0.0701
-0.6967,-1.0726,-9.6989,-0.0568,0.2377,-0.0879
-0.6225,-0.8811,-9.8881,-0.0549,0.1905,-0.0778
-0.5028,-0.7973,-10.0341,-0.0373,0.1303,-0.0608
-0.316,-0.838,-10.173,-0.0117,0.0637,-0.0509
-0.3232,-0.9697,-10.1873,0.0037,0.0109,-0.0549
-0.4477,-1.0439,-10.2999,0.0133,-0.0565,-0.0608
-0.5866,-1.1013,-10.501,0.024,-0.1202,-0.0653
-0.5722,-1.1564,-10.5848,0.0288,-0.1679,-0.056
-0.3663,-1.2665,-10.6135,0.012,-0.1793,-0.0253
-0.2394,-1.4581,-10.5776,-0.0205,-0.1703,0.0024
-0.4238,-1.3767,-10.7811,-0.0445,-0.2004,-0.0029
-0.5004,-1.0942,-10.6542,-0.0408,-0.2646,-0.0232
-0.5291,-0.9864,-10.6231,-0.0328,-0.3136,-0.0237
-0.4621,-0.9457,-10.738,-0.0109,-0.3192,-0.0152
-0.5028,-1.0942,-10.6015,-0.0045,-0.2944,-0.0069
-0.5722,-1.1851,-10.3118,-0.0059,-0.267,-0.0168
-0.6871,-1.2043,-10.0341,-0.0165,-0.2388,-0.0346
-0.8787,-1.221,-10.0556,-0.0285,-0.199,-0.0314
-0.893,-1.2306,-9.9527,-0.0397,-0.1426,-0.0184
-0.7901,-1.2115,-9.8785,-0.0445,-0.0578,-0.0192
-0.826,-1.1468,-9.7492,-0.0501,0.0272,-0.0245
-0.7829,-1.1061,-9.7851,-0.0453,0.0895,-0.0187
-0.6153,-1.0247,-10.0149,-0.0083,0.1553,-0.0043
-0.5986,-1.0391,-10.1514,0.0312,0.2166,-0.0011
-0.5914,-1.0798,-10.3358,0.0557,0.2459,-0.0187
-0.4836,-1.1995,-10.3238,0.0392,0.2457,-0.0448
-0.3304,-1.3024,-10.2592,0.0003,0.2318,-0.0352
-0.2945,-1.2929,-10.1682,-0.0187,0.1927,-0.0139
-0.3807,-1.0989,-10.2089,-0.0309,0.113,-0.0035
-0.3974,-1.0295,-10.2663,-0.0333,0.0216,-0.0205
-0.4286,-0.9361,-10.4052,-0.0232,-0.0461,-0.0418
-0.5698,-0.8906,-10.6853,-0.0024,-0.0941,-0.0557
-0.6728,-0.8787,-10.896,0.0093,-0.133,-0.061
-0.7254,-1.0056,-10.8194,0.0181,-0.1346,-0.069
-0.7542,-1.075,-10.7404,0.0144,-0.1132,-0.077
-0.7087,-1.0894,-10.7428,-0.0043,-0.0789,-0.0765
-0.7087,-1.1827,-10.7093,-0.0421,-0.0509,-0.057
-0.7087,-1.2474,-10.5991,-0.0797,-0.0546,-0.0509
-0.6728,-1.1995,-10.319,-0.1234,-0.0616,-0.0618
-0.5698,-1.2809,-9.9288,-0.1663,-0.0549,-0.069
-0.6057,-1.1564,-9.9431,-0.1585,-0.0256,-0.0554
-0.6536,-1.0319,-10.173,-0.1151,0.0261,-0.0437
-0.7278,-0.9433,-10.3118,-0.0725,0.0714,-0.0565
-0.7566,-0.9313,-10.2711,-0.0536,0.0962,-0.0722
-0.8212,-0.8691,-10.1299,-0.0557,0.1015,-0.0778
-0.759,-0.9361,-9.9934,-0.0541,0.1031,-0.0629
-0.7039,-0.9936,-9.9886,-0.0514,0.1069,-0.0338
-0.6081,-0.8978,-10.1107,-0.033,0.1092,-0.0131
-0.5148,-0.8954,-10.2735,0.0013,0.1055,-0.008
-0.4884,-0.8595,-10.3837,0.0413,0.1013,-0.0165
-0.4046,-0.8308,-10.556,0.0749,0.0967,-0.008
-0.4046,-0.9002,-10.6422,0.0917,0.0959,0.0037
-0.2514,-0.9816,-10.6326,0.0903,0.0821,0.0112
-0.1341,-1.0151,-10.5824,0.0797,0.0578,0.0211
-0.1915,-1.1205,-10.4722,0.0565,0.0176,0.0211
-0.3615,-1.1109,-10.4531,0.0402,-0.056,0.0059
-0.4908,-1.1468,-10.2256,0.024,-0.1276,-0.0147
-0.498,-1.1492,-10.0604,0.0136,-0.1455,-0.0187
-0.5171,-1.1875,-10.0293,0.0203,-0.1092,-0.0064
-0.5698,-1.1875,-10.1873,0.0309,-0.0637,0.0104
-0.5555,-1.1971,-10.2759,0.0242,-0.0408,0.0216
-0.4908,-1.1708,-10.0317,0.0085,-0.0314,0.0394
-0.4693,-1.1923,-9.7683,-0.0003,-0.024,0.0544
-0.3783,-1.1396,-9.7157,-0.0013,-0.0107,0.065
-0.5315,-1.1085,-9.7564,-0.0043,0.0059,0.0621
-0.735,-0.9529,-9.6917,0.004,0.0157,0.0424
-0.8188,-0.8763,-9.7636,0.0442,0.0256,0.037
-0.9313,-0.7709,-10.1682,0.0957,0.0592,0.041
-0.8475,-0.8092,-10.5345,0.1455,0.1069,0.0546
-0.6464,-0.8811,-10.6326,0.1871,0.1692,0.069
-0.5578,-0.9361,-10.659,0.21,0.2081,0.0735
-0.3304,-1.0989,-10.6015,0.2025,0.2081,0.0658
-0.1652,-1.1612,-10.6135,0.1777,0.1945,0.0509
0.0766,-1.3024,-10.7045,0.1479,0.1482,0.0578
0.249,-1.336,-10.7883,0.117,0.1002,0.0775
0.1915,-1.2953,-10.8457,0.0767,-0.0021,0.0839
0.0622,-1.2139,-10.5129,0.0216,-0.117,0.0504
-0.146,-1.1396,-10.2017,-0.0234,-0.2041,0.0216
-0.3208,-1.1349,-10.0102,-0.0477,-0.2489,0.0139
-0.8595,-1.0989,-10.0772,-0.036,-0.2537,-0.0024
-1.2761,-0.9457,-10.2807,-0.0091,-0.2657,-0.0288
-1.0846,-0.984,-10.6781,0.0192,-0.2262,-0.0125
-0.7997,-0.9697,-10.8026,0.0552,-0.0861,0.0557
-0.6273,-0.9984,-10.3813,0.0469,0.0616,0.1063
-0.4597,-1.0391,-10.0916,0.0056,0.1364,0.0869
-0.3615,-1.0894,-10.1562,-0.0392,0.1234,0.0517
-0.3831,-1.2067,-10.4148,-0.052,0.061,0.0333
-0.4405,-1.1899,-10.6518,-0.0536,0.0312,0.0466
-0.5004,-1.0965,-10.6063,-0.0826,0.0211,0.073
-0.4836,-0.9649,-10.5129,-0.1122,0.0051,0.0949
-0.498,-0.9601,-10.4938,-0.1255,-0.0133,0.0962
-0.5291,-1.0247,-10.5776,-0.117,-0.057,0.0743
-0.5794,-1.1085,-10.8314,-0.134,-0.1191,0.0725
-0.2897,-1.2737,-10.7045,-0.1927,-0.1833,0.1007
0.0359,-1.3647,-10.2232,-0.2654,-0.23,0.1343
0.2083,-1.3408,-9.6678,-0.3208,-0.2611,0.1196
0.1149,-1.2474,-9.56,-0.3307,-0.2699,0.0645
-0.2849,-1.0918,-9.73,-0.3059,-0.2867,0.016
-0.3256,-0.8954,-10.07,-0.247,-0.2814,0.008
-0.431,-0.8428,-10.0748,-0.1812,-0.2188,0.029
-0.7853,-0.7829,-9.8928,-0.1412,-0.149,0.0277
-1.075,-0.5746,-9.7276,-0.1124,-0.0834,0.0125
-1.2043,-0.5435,-9.8354,-0.0797,-0.0338,0.024
-1.1779,-0.5028,-10.2376,-0.0208,0.0266,0.0538
-1.0056,-0.5339,-10.6686,0.0123,0.0831,0.0775
-0.7757,-0.759,-10.659,0.0019,0.0839,0.0986
-0.5124,-0.9625,-10.4627,-0.0282,0.0274,0.0877
-0.3926,-1.0247,-10.6542,-0.0517,-0.056,0.0554
-0.2274,-1.0534,-11.0085,-0.0669,-0.1383,0.0226
-0.1125,-0.9912,-10.8481,-0.0831,-0.1748,0.0218
-0.4884,-0.917,-10.7117,-0.1255,-0.2233,0.0125
-0.8428,-0.9625,-10.3142,-0.1828,-0.3262,-0.0096
-0.8212,-0.7757,-10.1873,-0.194,-0.4245,-0.024
-0.5124,-0.7781,-10.137,-0.1793,-0.4519,-0.0115
-0.2562,-0.9218,-9.8426,-0.1748,-0.4159,-0.0101
-0.2538,-0.9457,-9.4068,-0.1777,-0.368,-0.0453
-0.7326,-0.8619,-9.1554,-0.1697,-0.3808,-0.0906
-1.2378,-0.498,-9.979,-0.1178,-0.4263,-0.1279
-1.3479,-0.3543,-10.7308,-0.0282,-0.4069,-0.0821
-1.4437,-0.4214,-10.7117,0.0496,-0.3437,-0.0258
-1.5107,-0.6416,-10.6829,0.077,-0.2947,-0.0333
-1.4772,-0.8164,-11.3174,0.0562,-0.2414,-0.0626
-1.2737,-1.0104,-11.6071,-0.0117,-0.1908,-0.0418
-0.9098,-1.2258,-11.2527,-0.1037,-0.1559,-0.0131
-0.8811,-1.324,-10.829,-0.2374,-0.1551,-0.0192
-0.8308,-1.221,-10.6207,-0.3544,-0.2244,-0.044
-0.4262,-1.1205,-10.2903,-0.4135,-0.2787,-0.0597
-0.1556,-1.075,-9.9288,-0.3914,-0.2555,-0.0629
-0.4381,-0.9122,-9.9192,-0.3509,-0.2172,-0.0887
-0.6105,-0.8787,-10.1299,-0.3187,-0.2302,-0.1061
-0.6153,-0.9816,-10.1299,-0.3296,-0.234,-0.0927
-0.6536,-0.9098,-9.596,-0.3906,-0.2166,-0.0706
-0.7829,-0.7278,-8.825,-0.4096,-0.1871,-0.065
-0.8739,-0.431,-8.9495,-0.3549,-0.1444,-0.0517
-1.0702,-0.0048,-9.8617,-0.2419,-0.1082,-0.033
-1.3934,0.103,-10.7571,-0.1444,-0.0967,-0.0029
-1.3408,-0.0407,-11.1857,-0.0978,-0.1514,0.0242
-1.075,-0.3903,-11.4706,-0.0938,-0.1943,0.0397
-0.5435,-0.7949,-11.6957,-0.1279,-0.2523,0.0442
-0.0072,-1.063,-11.145,-0.1889,-0.3067,0.0434
-0.3112,-1.0056,-10.3717,-0.2662,-0.3587,0.016
-0.7853,-0.6608,-10.1754,-0.3171,-0.465,-0.0067
-0.826,-0.328,-10.5417,-0.2944,-0.4946,0.0037
-1.087,-0.2131,-10.41,-0.2529,-0.4575,0.0282
-1.6185,-0.1963,-9.9695,-0.227,-0.4373,0.0197
-1.8435,-0.0479,-10.0533,-0.2108,-0.4069,0.0133
-1.8196,-0.0168,-10.5345,-0.1911,-0.3235,0.0448
-1.3791,-0.2562,-10.5225,-0.1679,-0.2238,0.0743
-0.6321,-0.7207,-9.5648,-0.1514,-0.0895,0.0741
-0.6656,-0.8045,-8.4036,-0.1388,0.0258,0.0405
-1.3168,-0.316,-7.829,-0.1055,0.0762,0.0211
-1.5706,0.1006,-7.6447,0.0051,0.117,0.0594
-1.3408,0.3783,-7.4915,0.2036,0.1833,0.1308
-1.0295,0.4405,-7.7548,0.4287,0.2886,0.1623
-0.8284,0.3519,-8.521,0.6387,0.3525,0.1545
-0.4836,0.2251,-9.4715,0.8151,0.3653,0.1314
-0.3926,-0.1269,-10.4531,0.9435,0.3344,0.1226
-0.4357,-0.431,-11.6813,1.0229,0.2284,0.1162
-0.5219,-0.7063,-12.821,0.9984,0.0549,0.1047
-0.5555,-0.8787,-13.0676,0.8945,-0.1271,0.0847
-0.7183,-1.075,-12.0165,0.6917,-0.2966,0.0501
-1.1253,-1.0463,-10.9702,0.4914,-0.4122,0.0
-1.7286,-0.8045,-10.4267,0.3725,-0.4413,-0.0392
-2.3703,-0.4908,-10.7452,0.3493,-0.3989,-0.048
-2.8132,-0.4717,-11.8657,0.356,-0.34,-0.0392
-3.0909,-0.4429,-13.2304,0.3277,-0.2403,-0.0144
-2.9975,-0.5818,-13.386,0.1927,-0.1362,0.0378
-2.964,-0.6752,-12.0237,0.0133,0.0029,0.0437
-3.1316,-0.759,-10.7739,-0.1338,0.1063,0.0397
-2.9161,-0.7111,-10.6039,-0.2054,0.1948,0.0562
-1.7214,-0.9816,-10.2663,-0.1921,0.3166,0.1138
-0.3974,-1.3815,-8.904,-0.1082,0.5335,0.1474
-0.3519,-1.3384,-8.0732,-0.0456,0.6811,0.073
-0.6823,-1.1349,-8.497,-0.0021,0.6281,-0.028
-0.8236,-0.8667,-9.3661,0.0775,0.5265,-0.0269
-0.8356,-0.5938,-9.7827,0.203,0.4711,0.0386
-0.5866,-0.6009,-9.7827,0.3104,0.4634,0.0914
-0.261,-0.7087,-9.5816,0.3778,0.5116,0.0783
-0.0718,-0.9074,-9.7229,0.4354,0.5521,0.0237
0.0407,-0.9553,-10.3645,0.4972,0.4895,-0.04
-0.0335,-1.0151,-10.8338,0.5564,0.3669,-0.0826
0.0622,-1.1109,-10.975,0.6065,0.2217,-0.1207
0.0263,-1.3264,-10.908,0.6219,0.0911,-0.15
-0.0335,-1.5131,-10.9319,0.5806,-0.0408,-0.1719
-0.1891,-1.5155,-11.4802,0.5089,-0.1553,-0.211
-0.6345,-1.4533,-11.8058,0.3896,-0.2414,-0.2409
-0.4549,-1.4269,-10.7164,0.2643,-0.2646,-0.2467
-1.5754,-1.1875,-9.7564,0.1545,-0.1119,-0.23
-1.822,-0.7183,-10.2304,0.0418,-0.0743,-0.2939
-0.0694,-1.3982,-9.7971,0.0325,0.0959,-0.2409
0.4693,-1.9082,-9.3925,0.0855,0.2369,-0.0789
1.3862,-2.4062,-8.667,-0.0461,0.0743,-0.0589
2.6097,-2.9018,-8.5114,-0.182,-0.1617,-0.1548
1.8986,-2.5283,-9.845,-0.1751,-0.3824,-0.2825
0.7829,-1.5467,-10.8888,-0.114,-0.708,-0.3475
-0.3591,-0.8404,-10.9223,-0.0376,-0.8244,-0.3267
-1.9537,-0.2179,-11.3389,0.0621,-0.7194,-0.3195
-3.6105,0.6632,-11.4299,0.1727,-0.5468,-0.3336
-4.0247,1.1636,-12.6318,0.2156,-0.3936,-0.3222
-3.9696,1.3743,-15.2942,0.2435,-0.3022,-0.2406
-4.1827,0.668,-13.2711,0.0674,-0.5044,-0.2316
-0.8475,-2.9425,-8.7149,-0.1007,-0.8127,-0.4565
1.2282,-4.3694,-8.0517,0.0834,-0.4234,-0.9755
-2.32,-2.9209,-7.3478,-0.231,-1.1434,-0.5351
-3.5123,0.0215,-12.706,-0.0933,-1.8903,0.1876
-8.4611,3.6176,-15.7467,0.6819,-1.2654,0.1772
-10.7141,2.1117,-12.4953,0.9395,-0.2206,-0.0866
-7.0461,-2.9018,-9.5505,0.7413,1.242,-0.0975
-3.4333,-5.7485,-7.0773,0.2657,2.3774,0.0765
0.5938,-5.0063,-5.4779,-0.0898,2.6665,0.1359
2.7198,-2.7797,-6.2177,-0.2723,2.1903,0.1404
2.9042,-0.395,-7.0844,-0.1188,1.4136,0.0069
1.4796,0.6943,-7.8745,0.1913,0.9465,-0.1529
-0.4453,-0.261,-9.0142,0.3299,0.8434,-0.1953
-0.8164,-1.2809,-9.2895,0.319,1.0187,-0.1151
-0.2945,-2.3846,-9.2464,0.1498,1.2838,0.0157
1.0439,-2.4948,-9.4284,-0.0149,1.408,0.0762
1.7597,-1.7382,-9.9359,-0.0762,1.258,0.0674
1.992,-0.7829,-10.2304,-0.0426,0.8796,0.073
1.4676,-0.2179,-10.5967,0.0725,0.4954,0.0727
0.7087,-0.498,-11.0038,0.1351,0.2419,0.0645
-0.1484,-1.0199,-11.3054,0.1284,0.1306,0.0485
-0.8571,-1.5251,-11.3174,0.0461,0.134,0.0373
-0.8212,-1.5179,-11.1306,-0.0365,0.1322,0.0389
-0.2107,-1.4317,-10.7356,-0.0943,0.097,0.0392
0.4046,-1.2402,-10.2544,-0.1404,-0.0277,0.0128
0.7997,-1.1133,-9.9335,-0.1927,-0.2246,-0.0312
0.8092,-1.0319,-9.2751,-0.2345,-0.413,-0.0442
0.6752,-1.0271,-8.9495,-0.2153,-0.5889,-0.0229
0.4884,-0.8739,-8.6957,-0.1633,-0.6859,-0.0176
-0.0311,-0.9409,-8.5736,-0.1015,-0.6238,-0.0293
-0.328,-1.0774,-8.5784,-0.052,-0.4551,-0.0011
-0.3041,-1.4126,-8.6,-0.024,-0.2161,0.0618
-0.0048,-1.664,-8.9998,0.0008,0.0581,0.1098
0.3663,-1.6831,-9.4786,0.0338,0.2779,0.1284
0.6776,-1.652,-10.0341,0.0629,0.458,0.1412
0.8906,-1.5371,-10.5273,0.1061,0.5716,0.1431
0.8571,-1.5586,-10.8816,0.137,0.5788,0.142
0.9864,-1.5826,-11.1306,0.134,0.49,0.142
0.6967,-1.4676,-11.1091,0.1199,0.3869,0.1135
0.3328,-1.2641,-11.1067,0.1074,0.2713,0.0738
-0.0192,-1.0822,-11.1594,0.0834,0.1463,0.0658
-0.3711,-0.9026,-11.3533,0.0626,0.0213,0.0648
-0.8021,-0.7997,-11.5448,0.0525,-0.0762,0.0496
-1.0032,-0.8811,-11.3437,0.0189,-0.1572,0.0277
-1.1468,-0.9601,-10.9774,-0.0234,-0.2046,0.0043
-1.2234,-0.9625,-10.8194,-0.0517,-0.2132,0.0029
-1.1995,-0.8906,-10.7978,-0.0613,-0.1924,0.0237
-1.1013,-0.7638,-10.9535,-0.06,-0.1807,0.0418
-0.9361,-0.7997,-10.9391,-0.0616,-0.1783,0.0602
-0.7135,-0.9457,-10.7978,-0.0464,-0.1474,0.0632
-0.589,-1.1564,-10.7667,-0.0378,-0.0893,0.0765
-0.4405,-1.2905,-10.6063,-0.0322,-0.056,0.0901
-0.4142,-1.3695,-10.4363,-0.0378,-0.0282,0.1021
-0.2849,-1.3743,-10.3525,-0.0341,0.0232,0.1167
-0.249,-1.3934,-10.2041,-0.0264,0.0845,0.1263
-0.2298,-1.4222,-10.149,-0.0357,0.1122,0.1375
-0.1628,-1.3623,-10.1227,-0.0525,0.1263,0.1383
-0.1269,-1.3455,-9.9288,-0.0581,0.1474,0.1426
-0.0742,-1.2857,-9.8904,-0.0536,0.1655,0.1386
-0.0718,-1.1875,-9.9024,-0.045,0.154,0.1348
-0.1365,-1.1157,-10.1442,-0.0376,0.1146,0.1362
-0.158,-0.9697,-10.2376,-0.0152,0.0853,0.1244
-0.1556,-0.9361,-10.3382,0.0053,0.0589,0.1154
-0.1676,-0.9385,-10.5991,0.0256,0.0096,0.1162
-0.2466,-0.972,-10.6686,0.0384,-0.0258,0.113
-0.407,-0.996,-10.8218,0.048,-0.0448,0.0975
-0.5339,-1.0415,-10.8816,0.0552,-0.0469,0.0898
-0.656,-1.0774,-10.6973,0.0522,-0.0477,0.0847
-0.7183,-1.0582,-10.6398,0.0456,-0.057,0.0749
-0.7805,-0.9936,-10.5967,0.0384,-0.0613,0.0576
-0.6345,-1.0295,-10.6183,0.0418,-0.0586,0.0498
-0.5004,-1.075,-10.501,0.0432,-0.049,0.0541
-0.4262,-1.2019,-10.5632,0.0456,-0.0648,0.056
-0.3687,-1.1899,-10.4148,0.037,-0.0901,0.0544
-0.3974,-1.245,-10.3669,0.0256,-0.1292,0.0557
-0.4573,-1.1684,-10.1825,0.0107,-0.1769,0.0565
-0.589,-1.1133,-10.0724,0.0005,-0.2092,0.0509
-0.7638,-1.0989,-9.9216,-0.0021,-0.2289,0.0477
-0.826,-1.1133,-9.9671,-0.0048,-0.2345,0.0488
-0.9098,-1.1612,-10.0269,-0.0115,-0.2273,0.0482
-1.008,-1.1684,-10.082,-0.016,-0.2158,0.0472
-1.0678,-1.1157,-10.1634,-0.0157,-0.1958,0.0365
-1.1109,-1.0678,-10.1394,-0.0109,-0.1777,0.0245
-1.0702,-1.0391,-10.3214,-0.0024,-0.1444,0.0218
-1.1205,-1.0558,-10.3932,0.0016,-0.0989,0.0144
-0.9864,-1.1205,-10.3645,0.0064,-0.0448,0.0136
-0.7997,-1.1923,-10.3932,0.0157,0.0088,0.0179
-0.5004,-1.336,-10.4052,0.0157,0.033,0.0288
-0.2418,-1.4054,-10.398,0.0053,0.0336,0.0341
-0.146,-1.3048,-10.3358,-0.0035,-0.0099,0.0325
-0.1987,-1.2258,-10.4028,-0.0067,-0.0863,0.0298
-0.3424,-1.1037,-10.3813,-0.0008,-0.1657,0.0189
-0.565,-1.0918,-10.3956,0.0,-0.1964,0.0115
-0.8428,-1.1779,-10.2424,-0.0117,-0.1951,0.0075
-0.9337,-1.2833,-10.0461,-0.0253,-0.1705,0.0075
-0.9577,-1.233,-9.8665,-0.0408,-0.1628,0.0048
-0.9026,-1.1205,-9.833,-0.0546,-0.1641,0.004
-0.9313,-1.0822,-9.7252,-0.0592,-0.1769,-0.004
-0.984,-1.0104,-9.73,-0.0578,-0.1719,-0.0112
-1.1612,-0.9505,-9.7157,-0.0381,-0.166,-0.0192
-1.2665,-1.0798,-9.7324,-0.0232,-0.134,-0.0216
-1.154,-1.154,-9.8737,-0.0155,-0.0797,-0.0176
-0.9553,-1.2234,-10.058,-0.0117,-0.0208,-0.0056
-0.6081,-1.2163,-10.2999,-0.0016,0.0306,0.0157
-0.407,-1.2186,-10.41,0.0147,0.0272,0.0274
-0.3831,-1.233,-10.4914,0.0376,-0.0117,0.0274
-0.3232,-1.312,-10.4267,0.0442,-0.0781,0.0216
-0.4094,-1.3527,-10.4267,0.0242,-0.1204,0.0234
-0.4788,-1.2977,-10.3932,-0.0037,-0.1676,0.0258
-0.6033,-1.1971,-10.4267,-0.032,-0.219,0.0346
-0.5531,-1.1516,-10.3837,-0.0397,-0.2683,0.0504
-0.486,-1.1085,-10.3549,-0.0461,-0.308,0.0661
-0.4788,-1.0654,-10.3956,-0.041,-0.3397,0.0605
-0.3879,-1.0918,-10.3645,-0.0234,-0.3632,0.0434
-0.4262,-1.0558,-10.3597,-0.0075,-0.3357,0.0232
-0.5746,-1.1205,-10.3501,0.0112,-0.2793,0.0067
-0.7207,-1.1708,-10.2687,0.0266,-0.1985,0.0024
-0.9792,-1.2929,-10.0293,0.0216,-0.1116,0.0061
-1.1349,-1.3767,-10.0221,0.0067,-0.0376,0.0077
-1.1827,-1.2713,-10.0221,-0.0072,0.0192,-0.0067
-1.1779,-1.2091,-10.1131,-0.0237,0.0725,-0.0123
-1.1013,-1.1492,-10.2304,-0.0384,0.1124,-0.0051
-1.0247,-1.0774,-10.0724,-0.0306,0.1322,-0.0099
-1.0319,-1.0463,-10.0748,-0.0165,0.118,0.0136
-0.8811,-1.1037,-10.1418,-0.0088,0.0901,-0.0336
-0.7374,-1.2641,-10.1945,-0.0248,0.073,-0.037
-0.565,-1.3671,-10.2879,-0.0573,0.053,-0.0293
-0.5746,-1.2977,-10.4267,-0.0746,0.0053,-0.0205
-0.6752,-1.1875,-10.5153,-0.0773,-0.0743,-0.0155
-0.7135,-1.1253,-10.3932,-0.0943,-0.1266,-0.0107
-0.7661,-1.1349,-10.2951,-0.1204,-0.1252,0.008
-0.9194,-1.0654,-10.2783,-0.1098,-0.105,0.0213
-1.0439,-0.9313,-10.4387,-0.0823,-0.0778,0.0229
-0.9625,-0.9002,-10.4746,-0.0549,-0.0533,0.029
-1.0534,-0.8859,-10.4986,-0.0346,-0.0085,0.037
-0.4525,-1.1325,-10.4746,-0.0392,0.0735,0.057
-0.5124,-1.1732,-10.3166,-0.0301,0.1556,0.0453
-0.3304,-1.1995,-10.094,-0.0426,0.1692,0.0394
-0.5028,-1.1995,-9.8785,-0.0626,0.1463,0.0168
-0.565,-1.1372,-9.9886,-0.0557,0.0954,-0.0157
-0.5674,-1.0726,-10.0556,-0.0512,0.0743,-0.0328
-0.6752,-1.0175,-10.1299,-0.0461,0.0927,-0.0346
-0.7901,-1.0558,-10.2352,-0.0368,0.101,-0.0394
-0.747,-1.1301,-10.3334,-0.0386,0.1159,-0.0357
-0.5578,-1.2737,-10.3406,-0.0584,0.1633,-0.0133
-0.577,-1.2258,-10.5297,-0.0658,0.226,0.0013
-0.486,-1.1301,-10.5345,-0.0935,0.2422,0.0021
-0.2993,-1.0104,-10.3382,-0.1162,0.238,0.0083
-0.2179,-0.9074,-10.3238,-0.1077,0.1865,0.0083
-0.2251,-0.7805,-10.4172,-0.0632,0.0999,0.0035
-0.2394,-0.8212,-10.3573,-0.0128,-0.0133,-0.016
-0.2251,-0.9625,-10.252,0.0264,-0.1122,-0.0336
-0.2346,-1.0582,-10.4507,0.045,-0.1777,-0.0309
-0.431,-1.2115,-10.6686,0.0506,-0.2337,-0.0171
-0.6249,-1.2282,-10.8074,0.0344,-0.2819,-0.0152
-0.8619,-1.1684,-10.9846,0.0085,-0.3248,-0.0269
-0.9553,-1.1181,-11.0588,-0.0218,-0.3493,-0.0352
-0.8906,-1.0582,-10.9702,-0.052,-0.3102,-0.0195
-0.8811,-1.1157,-10.7141,-0.0802,-0.234,-0.0109
-0.9529,-1.1492,-10.5465,-0.1103,-0.1543,-0.0224
-0.9337,-1.2641,-10.2711,-0.1434,-0.0741,-0.0458
-0.8475,-1.3048,-10.0197,-0.1772,0.0016,-0.0533
-0.735,-1.1851,-10.1347,-0.1804,0.0687,-0.0282
-0.7302,-0.8045,-10.3214,-0.1487,0.1226,0.0059
-0.7278,-0.3807,-10.2855,-0.1143,0.1463,0.0325
-0.6321,-0.1772,-10.1634,-0.0669,0.1729,0.0362
-0.4549,-0.3065,-10.1059,0.0011,0.2076,0.0346
-0.4214,-0.7087,-9.9766,0.0648,0.2196,0.0298
-0.3519,-1.0511,-9.9383,0.0818,0.1985,0.0029
-0.4286,-1.1732,-10.0149,0.0613,0.1506,-0.0149
-0.4525,-1.221,-10.003,0.0317,0.1021,0.0112
-0.4812,-1.0918,-10.0724,0.0141,0.0874,0.0546
-0.4118,-0.9816,-10.0054,0.0155,0.0584,0.0759
-0.4836,-0.8978,-9.979,0.0352,0.0163,0.0802
-0.4788,-0.8787,-10.2041,0.0594,-0.0453,0.0805
-0.4477,-0.8092,-10.3765,0.0853,-0.0879,0.0821
-0.3448,-0.9026,-10.2041,0.0895,-0.1135,0.0863
-0.2969,-1.0199,-10.0078,0.0943,-0.1292,0.0826
-0.3424,-1.1396,-9.979,0.1268,-0.1383,0.0706
-0.3639,-1.0678,-10.0269,0.1458,-0.1308,0.0554
-0.4022,-1.1229,-9.8833,0.1322,-0.1055,0.0578
-0.4477,-1.1085,-9.7683,0.1247,-0.0594,0.0592
-0.4429,-0.984,-10.0149,0.1332,0.0077,0.053
-0.5531,-0.8595,-10.4842,0.1492,0.0847,0.0373
-0.7901,-0.735,-10.8529,0.1524,0.145,0.0226
-0.8236,-0.7853,-11.3485,0.1127,0.1559,0.0242
-0.6512,-0.905,-11.6143,0.1098,0.1575,0.0285
-0.4022,-1.0199,-11.3581,0.0959,0.1066,0.0309
-0.146,-1.0199,-11.0157,0.0442,0.0264,0.0
-0.2705,-1.142,-10.6973,-0.0266,-0.056,-0.0394
-0.5219,-1.2594,-10.6829,-0.0759,-0.1569,-0.0624
-0.7207,-1.2689,-10.7428,-0.1063,-0.2526,-0.0594
-0.6536,-1.2115,-10.4124,-0.1676,-0.3022,-0.0131
-0.7159,-1.1085,-9.8474,-0.2124,-0.2864,-0.0045
-0.9505,-1.0032,-9.9503,-0.2204,-0.2475,-0.0322
-0.8882,-0.9433,-10.1754,-0.1836,-0.2017,-0.0408
-0.8428,-0.8619,-9.991,-0.1474,-0.1111,-0.0027
-0.8236,-0.8619,-9.5984,-0.1402,-0.0354,0.0173
-0.6225,-1.0199,-9.426,-0.1258,0.0352,0.0187
-0.4501,-1.1349,-9.4834,-0.0898,0.1156,0.0091
-0.3831,-1.1157,-9.5816,-0.0589,0.1879,0.0035
-0.4836,-0.9673,-9.9479,-0.0546,0.1966,0.008
-0.7326,-0.8715,-10.556,-0.1007,0.1085,0.0272
-0.6297,-0.8452,-10.9415,-0.1346,-0.0469,0.045
-0.2346,-0.8763,-10.9271,-0.1807,-0.166,0.0711
0.182,-1.0439,-10.5848,-0.2473,-0.2225,0.0701
0.4214,-1.1564,-10.2017,-0.308,-0.2739,0.0501
0.3807,-1.1253,-9.8545,-0.3432,-0.3525,0.0069
0.067,-0.759,-10.0341,-0.3139,-0.466,-0.0485
-0.4836,-0.3974,-10.5225,-0.259,-0.5534,-0.0799
-1.2091,-0.2849,-10.4172,-0.1879,-0.6102,-0.0469
-1.4988,-0.3735,-10.2807,-0.1311,-0.639,-0.0192
-1.2546,-0.6201,-10.2568,-0.0711,-0.5073,-0.0064
-0.8404,-0.8547,-10.1059,-0.0496,-0.2886,0.0045
-0.4764,-1.142,-9.991,-0.0661,-0.0693,-0.0016
-0.6249,-1.1277,-9.9766,-0.1007,0.0621,-0.0296
-0.917,-0.9984,-10.3621,-0.1506,0.0488,-0.0501
-0.8356,-0.9242,-11.0229,-0.1831,-0.0125,-0.0584
-0.5626,-0.8284,-11.1809,-0.231,-0.0512,-0.0373
-0.4022,-0.9529,-10.5417,-0.2976,-0.0917,-0.0117
-0.5435,-0.9649,-9.9742,-0.3504,-0.1436,-0.0498
-0.8092,-0.6871,-10.1897,-0.377,-0.2105,-0.0805
-1.087,-0.5938,-10.6805,-0.3826,-0.243,-0.073
-0.9792,-0.5219,-10.5082,-0.3754,-0.2292,-0.0586
-0.7829,-0.6776,-10.6374,-0.3142,-0.1705,-0.0482
-0.8452,-0.7422,-10.5417,-0.2675,-0.1151,-0.0485
-0.9026,-0.972,-10.4459,-0.2896,-0.0935,-0.0541
-0.9864,-0.8428,-9.7133,-0.3357,-0.041,-0.065
-1.1827,-0.7063,-9.2608,-0.3277,-0.0011,-0.0738
-1.3838,-0.3472,-9.3709,-0.267,0.0608,-0.0533
-1.3336,-0.0862,-10.2161,-0.1652,0.1431,-0.0381
-1.1564,-0.1197,-10.8026,-0.1066,0.1903,-0.0075
-0.7949,-0.2346,-10.738,-0.1207,0.1492,0.0053
-0.4286,-0.5363,-10.3382,-0.1364,0.0751,-0.0179
-0.3184,-0.6033,-10.1011,-0.1412,-0.0069,-0.0381
-0.4908,-0.4357,-10.0293,-0.1284,-0.093,-0.0493
-0.917,-0.2969,-9.9958,-0.1079,-0.1655,-0.0485
-1.2426,-0.0742,-10.2448,-0.0682,-0.219,-0.0378
-1.4533,-0.0072,-10.7356,-0.0256,-0.2427,-0.0179
-1.4389,-0.0455,-10.8816,-0.0205,-0.2571,-0.0032
-1.0247,-0.3998,-10.1179,-0.0362,-0.2201,-0.0013
-0.9601,-0.4477,-8.8849,-0.0245,-0.1412,-0.0056
-1.3815,-0.2011,-8.2361,0.0608,-0.0783,-0.004
-1.5179,0.1556,-8.2408,0.2225,-0.0197,0.0181
-1.3384,0.2682,-8.4707,0.4151,0.0642,0.064
-0.9313,0.067,-8.6574,0.5828,0.1396,0.1005
-0.4501,-0.2801,-9.1459,0.7035,0.1772,0.1015
-0.2466,-0.5794,-10.1706,0.789,0.1495,0.0909
-0.1532,-0.68,-11.0373,0.8375,0.0264,0.0847
-0.0622,-0.6416,-11.2504,0.8228,-0.0967,0.0877
-0.2777,-0.6081,-10.5536,0.7834,-0.121,0.0797
-0.6369,-0.9768,-10.1466,0.7109,-0.0997,0.0512
-0.9433,-0.8667,-10.5177,0.7125,-0.0839,0.0069
-1.0032,-0.8404,-11.0708,0.745,-0.0703,-0.016
-1.1708,-0.9194,-11.2767,0.7735,-0.0328,-0.036
-1.4581,-0.972,-10.975,0.7733,-0.0192,-0.052
-1.7166,-0.984,-10.7907,0.7408,0.0112,-0.0621
-1.7119,-1.063,-11.0277,0.7056,0.0474,-0.0557
-1.8866,-1.1875,-11.2623,0.6536,0.1639,-0.044
-1.9872,-1.0726,-11.564,0.5814,0.1354,-0.0434
-1.5179,-0.9816,-11.3868,0.574,0.1881,-0.0797
-2.0614,-0.9936,-11.2863,0.571,0.3373,-0.1308
-1.7597,-0.9122,-11.248,0.6049,0.3701,-0.1519
-1.1396,-0.984,-11.2049,0.6246,0.4578,-0.1252
-1.0534,-1.2977,-10.9056,0.5993,0.5899,-0.0815
-1.0918,-1.3336,-10.8362,0.5969,0.5854,-0.1055
-0.814,-1.6137,-11.236,0.5431,0.5255,-0.1242
-0.8499,-1.8076,-11.3294,0.4599,0.4594,-0.1282
-0.7661,-1.9872,-10.7212,0.3555,0.3949,-0.1247
-0.9433,-2.0782,-10.398,0.2214,0.3744,-0.1178
-0.9529,-2.0686,-10.5465,0.1188,0.3483,-0.1037
-0.747,-1.9656,-10.4531,0.0498,0.4093,-0.0978
-0.2179,-1.9441,-10.1849,-0.0093,0.5281,-0.1055
0.5171,-1.8244,-10.0652,-0.0184,0.7085,-0.0536
-0.3065,-1.3408,-9.0716,0.0866,0.9715,0.041
-1.2522,-0.7566,-8.8801,0.1655,1.0072,-0.0493
0.9529,-1.2881,-9.8881,0.1617,0.9371,-0.1263
2.1691,-2.3128,-10.003,0.1204,0.8703,0.0293
2.5426,-3.1675,-9.2153,-0.0783,0.4895,0.0893
3.0909,-3.0646,-9.809,-0.307,0.0245,-0.0695
2.5355,-2.0159,-11.2671,-0.3904,-0.2856,-0.1935
0.7781,-0.3496,-11.1498,-0.2478,-0.5023,-0.2246
-1.1396,0.5148,-11.7436,-0.1023,-0.5657,-0.2467
-2.715,1.5467,-14.8871,0.0274,-0.534,-0.2419
-4.8387,1.8675,-15.5767,0.0141,-0.6925,-0.1098
-3.8954,-0.9098,-10.3262,-0.2305,-1.1013,-0.2811
-0.7614,-3.3255,-11.157,-0.1482,-0.5729,-0.6859
-1.8962,-3.1891,-9.177,-0.1383,-0.5625,-0.5769
-2.8252,-2.0686,-10.1801,-0.3992,-1.2031,0.0821
-4.2306,0.4573,-14.4227,0.0168,-1.084,0.466
-7.0964,1.64,-12.8664,0.6363,-0.3555,0.4253
-5.9472,-1.6951,-9.2751,0.6888,0.6859,0.0759
-2.6121,-4.8626,-6.7516,0.4327,1.8503,-0.0682
0.5411,-5.2912,-5.1906,0.1338,2.2511,0.0077
2.3918,-3.8068,-5.5186,-0.0981,1.9566,0.1764
2.5833,-1.8004,-6.6846,-0.1362,1.0648,0.1748
2.0542,0.0096,-7.4029,0.0488,0.5028,0.0402
0.5507,0.0407,-8.5066,0.2134,0.2928,0.0037
-0.182,-0.5339,-9.0597,0.2539,0.4919,0.0368
-0.2346,-1.889,-9.6079,0.1196,0.8428,0.1737
1.0056,-2.5618,-10.0868,-0.0282,1.0627,0.2609
2.1739,-2.0111,-10.4986,-0.0914,1.0168,0.2737
2.5809,-1.1516,-10.7667,-0.0845,0.7418,0.2609
2.0997,-0.5938,-10.8984,-0.0144,0.389,0.2257
1.142,-0.6369,-10.6326,0.0296,0.0637,0.1849
0.2562,-1.0534,-10.343,0.0083,-0.1002,0.1671
-0.182,-1.482,-9.7636,-0.056,-0.0557,0.1633
-0.4166,-1.5921,-9.2488,-0.1178,0.0674,0.1628
-0.1891,-1.4293,-9.1889,-0.1324,0.1404,0.162
0.4238,-0.9505,-9.3182,-0.077,0.1367,0.1354
1.142,-0.8595,-9.3996,-0.0663,0.1026,0.1226
1.7813,-0.9194,-9.3805,-0.0469,0.0584,0.0887
1.9752,-1.2139,-9.651,-0.0594,-0.0165,0.0778
2.0351,-1.2953,-9.7659,-0.0685,-0.1364,0.0901
1.5874,-1.1971,-9.8809,-0.0677,-0.2451,0.0959
1.1636,-0.9457,-9.9934,-0.0453,-0.3672,0.0919
0.5986,-0.8954,-10.2017,-0.0304,-0.4061,0.0799
0.1077,-0.9697,-10.422,-0.0328,-0.397,0.0669
-0.0263,-1.0391,-10.3789,-0.0453,-0.3757,0.0506
-0.0431,-1.1205,-10.3789,-0.0624,-0.3307,0.0541
0.1125,-1.0223,-10.3765,-0.0687,-0.3227,0.06
0.2394,-1.0056,-10.5345,-0.0693,-0.3504,0.0648
0.1652,-1.0032,-10.5919,-0.0791,-0.3906,0.0536
0.0814,-1.0295,-10.6063,-0.0877,-0.4612,0.0426
0.0144,-1.2378,-10.4052,-0.1082,-0.5068,0.048
-0.249,-1.2641,-10.1227,-0.1122,-0.4844,0.0392
-0.5602,-1.312,-9.8497,-0.1138,-0.4229,0.0453
-0.6416,-1.2665,-9.6199,-0.1074,-0.336,0.0408
-0.6249,-1.1636,-9.7085,-0.1013,-0.2105,0.04
-0.6273,-1.0894,-9.8138,-0.0895,-0.1045,0.044
-0.3376,-1.1109,-10.0317,-0.0786,-0.0077,0.0474
-0.1101,-1.2306,-10.1466,-0.0693,0.0746,0.0432
0.0431,-1.3024,-10.319,-0.0573,0.1151,0.0434
0.1365,-1.3479,-10.3932,-0.065,0.1311,0.0448
0.17,-1.3384,-10.4291,-0.0765,0.1319,0.0392
0.091,-1.2163,-10.5153,-0.0815,0.1167,0.041
0.067,-1.0606,-10.6662,-0.0778,0.0826,0.0498
-0.1125,-0.9337,-10.738,-0.0711,0.0397,0.045
-0.3232,-0.905,-10.8122,-0.0679,-0.0072,0.0352
-0.3472,-0.9697,-10.9008,-0.0663,-0.0317,0.0272
-0.3472,-1.0439,-10.7955,-0.0629,-0.0298,0.0282
-0.3615,-1.1468,-10.7595,-0.064,-0.0269,0.044
-0.3639,-1.0726,-10.9128,-0.0514,-0.0554,0.0581
-0.3687,-1.0965,-10.9271,-0.0429,-0.0853,0.0616
-0.419,-1.0511,-11.0253,-0.0258,-0.1127,0.0565
-0.3974,-1.0271,-11.0109,-0.0117,-0.1268,0.0536
-0.3496,-1.0965,-10.9774,-0.0043,-0.1402,0.0557
-0.1413,-1.2378,-10.8146,-0.0045,-0.1404,0.0616
0.0622,-1.3168,-10.6686,-0.0093,-0.1428,0.0653
0.2203,-1.3216,-10.5919,-0.0136,-0.1636,0.0658
0.2562,-1.2761,-10.4651,-0.0197,-0.2041,0.0658
0.1317,-1.245,-10.4315,-0.0157,-0.2569,0.0663
-0.0263,-1.221,-10.4148,-0.0109,-0.3064,0.0605
-0.2274,-1.2091,-10.5034,-0.0064,-0.3443,0.0453
-0.6105,-1.142,-10.5608,-0.0187,-0.3752,0.0405
-0.7661,-1.1947,-10.4579,-0.0309,-0.3866,0.0346
-0.9026,-1.1875,-10.3046,-0.0373,-0.3749,0.0277
-0.9146,-1.1301,-10.2927,-0.0445,-0.3675,0.0237
-0.9553,-1.0582,-10.2903,-0.0362,-0.3323,0.0224
-1.0798,-0.9553,-10.2352,-0.0176,-0.2593,0.0184
-1.1468,-0.9122,-10.2304,0.0125,-0.1604,0.0152
-1.1205,-0.9864,-10.4196,0.0437,-0.0466,0.0237
-0.8859,-1.0846,-10.4435,0.0626,0.0645,0.0341
-0.5267,-1.2139,-10.3813,0.0693,0.1524,0.0498
-0.261,-1.3001,-10.4531,0.0634,0.1836,0.0549
-0.1173,-1.2546,-10.4675,0.0464,0.1545,0.0429
-0.0335,-1.1253,-10.5321,0.0408,0.0839,0.0269
-0.0383,-1.1396,-10.5105,0.0306,0.0128,0.0266
-0.1269,-1.1157,-10.489,0.0069,-0.0573,0.0373
-0.3256,-1.2139,-10.5249,-0.0285,-0.1258,0.0373
-0.6105,-1.1396,-10.5369,-0.0386,-0.2052,0.0187
-0.8787,-1.0774,-10.6255,-0.0346,-0.2982,-0.0024
-0.9577,-1.0942,-10.6398,-0.0445,-0.3547,-0.0045
-1.0127,-1.0439,-10.6231,-0.0562,-0.3691,-0.0043
-1.1732,-1.0271,-10.5225,-0.0528,-0.3605,-0.0187
-1.1684,-0.984,-10.3573,-0.0464,-0.3224,-0.0258
-1.1133,-0.9337,-10.1203,-0.0216,-0.2473,-0.0322
-1.087,-0.9529,-9.9264,-0.0016,-0.1244,-0.0456
-1.0367,-1.0487,-9.8497,0.0059,0.0088,-0.0618
-0.7183,-1.1277,-9.8474,0.0234,0.1071,-0.0568
-0.1628,-1.2522,-9.8976,0.0448,0.1825,-0.032
0.146,-1.3024,-10.1658,0.0589,0.2228,-0.0192
0.2921,-1.3431,-10.2256,0.0544,0.2025,-0.0346
0.1532,-1.2402,-10.3837,0.0584,0.1343,-0.0533
-0.1891,-1.3072,-10.6207,0.064,0.048,-0.0616
-0.3184,-1.2737,-10.6542,0.0493,-0.0213,-0.0624
-0.4214,-1.312,-10.7236,0.0157,-0.0512,-0.0671
-0.5938,-1.2594,-10.7332,-0.0133,-0.0807,-0.0733
-0.735,-1.0894,-10.7955,-0.0184,-0.1239,-0.0762
-0.8188,-0.9457,-10.9271,-0.0378,-0.1545,-0.077
-0.8715,-0.9409,-11.133,-0.0466,-0.1873,-0.0826
-0.7781,-0.984,-10.9822,-0.0578,-0.2254,-0.085
-0.6704,-1.0271,-10.5441,-0.0719,-0.2473,-0.0797
-0.5411,-1.1612,-10.137,-0.0895,-0.2649,-0.0741
-0.5507,-1.0942,-9.9192,-0.0837,-0.2246,-0.069
-0.6991,-1.0918,-9.505,-0.0725,-0.1617,-0.0695
-0.6009,-1.0846,-9.1842,-0.0618,-0.0887,-0.0749
-0.3807,-1.1037,-9.1459,-0.0458,0.0088,-0.0735
-0.182,-1.2186,-9.3781,-0.0242,0.0757,-0.0648
-0.1149,-1.336,-9.6007,-0.0037,0.0901,-0.0663
-0.0455,-1.3695,-9.8474,-0.0019,0.0584,-0.0725
-0.0599,-1.3479,-10.058,0.0003,0.0373,-0.0663
-0.2227,-1.3048,-10.3621,0.0035,0.028,-0.0538
-0.4334,-1.1827,-10.4675,0.0139,0.0336,-0.0573
-0.6273,-1.1947,-10.477,0.0144,0.0472,-0.0725
-0.7709,-1.1372,-10.5584,0.0091,0.0624,-0.0831
-0.6297,-1.2139,-10.556,0.0035,0.0791,-0.0775
-0.486,-1.1947,-10.4675,0.0024,0.0951,-0.06
-0.3879,-1.1636,-10.3118,0.0011,0.0919,-0.0485
-0.4453,-1.1109,-10.3549,-0.0059,0.0685,-0.0549
-0.2729,-1.1109,-10.2975,-0.0128,0.0314,-0.0506
-0.0694,-1.0798,-10.2017,-0.0104,0.0107,-0.0349
-0.1006,-1.1588,-10.0509,-0.0053,-0.0123,-0.0349
-0.2227,-1.1947,-10.0676,0.0032,-0.0445,-0.0397
-0.1676,-1.2929,-10.1035,0.0003,-0.0767,-0.0341
-0.1867,-1.2905,-10.2687,-0.0107,-0.0858,-0.0157
-0.2921,-1.2713,-10.4076,-0.0237,-0.0879,0.0061
-0.4597,-1.1875,-10.6207,-0.0232,-0.093,-0.0048
-0.5387,-1.1516,-10.7236,-0.032,-0.1055,-0.0139
-0.51,-1.1947,-10.6949,-0.044,-0.0826,-0.0061
-0.395,-1.2594,-10.4794,-0.0389,-0.0368,0.0072
-0.316,-1.1468,-10.6087,-0.0104,0.0075,0.0226
-0.3232,-1.008,-10.7188,0.0096,0.0093,0.0274
-0.2921,-1.075,-10.647,0.0149,-0.0176,0.0125
-0.2777,-1.1756,-10.5321,0.0187,-0.0338,-0.0067
-0.2346,-1.2354,-10.5082,0.0189,-0.0408,-0.016
-0.2155,-1.1947,-10.501,0.0147,-0.0376,0.0024
-0.146,-1.2282,-10.2448,0.0128,-0.04,0.0059
-0.1604,-1.2234,-9.979,0.0016,-0.0501,-0.0136
-0.1365,-1.2186,-9.7444,-0.0152,-0.0621,-0.0314
-0.17,-1.2378,-9.5816,-0.0333,-0.0648,-0.0333
-0.3543,-1.2282,-9.5624,-0.0317,-0.0645,-0.0338
-0.3807,-1.0894,-9.651,-0.029,-0.0648,-0.0397
-0.6009,-1.1253,-9.9503,-0.0448,-0.0576,-0.0349
-0.6249,-1.0822,-10.2113,-0.0493,-0.0389,-0.0274
-0.6871,-0.984,-10.3741,-0.0517,0.0115,-0.0189
-0.6847,-0.9457,-10.5201,-0.0464,0.0533,-0.0163
-0.6009,-0.9026,-10.6159,-0.0445,0.0855,-0.0133
-0.5076,-0.8859,-10.8769,-0.0208,0.1039,-0.0067
-0.5004,-0.9481,-10.9559,0.0013,0.1292,-0.0144
-0.5028,-0.9936,-10.7739,-0.004,0.1383,-0.0368
-0.4142,-1.0798,-10.6566,-0.0248,0.1362,-0.045
-0.2083,-1.1899,-10.5417,-0.0536,0.1474,-0.0253
-0.1269,-1.1444,-10.5034,-0.0818,0.1423,0.0
0.0168,-1.1085,-10.5465,-0.0997,0.1212,0.0144
0.0766,-0.9864,-10.6039,-0.1138,0.0698,0.0213
0.0982,-0.9385,-10.5321,-0.1223,-0.0128,0.0242
0.0862,-1.0199,-10.3453,-0.1306,-0.089,0.0242
0.0359,-1.0846,-10.1514,-0.1487,-0.1498,0.0264
-0.1173,-1.0894,-10.0604,-0.1548,-0.1772,0.0322
-0.1844,-1.0558,-10.0796,-0.1522,-0.1828,0.04
-0.2993,-1.0511,-10.0341,-0.1418,-0.1785,0.0434
-0.4573,-1.1061,-9.8497,-0.1276,-0.1636,0.0288
-0.6225,-1.0702,-9.8282,-0.1047,-0.1164,0.0163
-0.8116,-0.9505,-10.1131,-0.0666,-0.0613,0.0264
-0.8619,-0.8236,-10.2113,-0.0261,0.0051,0.0594
-0.7446,-0.7805,-10.0892,0.0205,0.0805,0.0789
-0.4381,-0.8404,-9.9958,0.0682,0.1681,0.0698
-0.2993,-0.9242,-10.0126,0.1156,0.2673,0.0522
-0.1245,-0.9577,-10.1562,0.1551,0.3256,0.052
0.0168,-1.0511,-10.3334,0.1671,0.3565,0.0698
0.2107,-1.1684,-10.4148,0.1556,0.3557,0.0845
0.3496,-1.233,-10.4172,0.1324,0.3222,0.0882
0.4477,-1.2498,-10.5584,0.1002,0.2454,0.0813
0.4166,-1.3072,-10.6518,0.0637,0.1268,0.0706
0.2035,-1.2498,-10.7117,0.0226,-0.0192,0.0557
0.1867,-1.2617,-10.738,-0.0045,-0.1316,0.0405
-0.1317,-1.1779,-10.6111,-0.024,-0.1713,0.0472
-0.4525,-0.9673,-10.4986,-0.0298,-0.1673,0.0634
-0.6345,-0.8284,-10.2232,-0.0165,-0.13,0.0759
-0.7278,-0.7853,-10.0748,0.0091,-0.0797,0.0794
-0.7087,-0.7087,-9.8761,0.0493,-0.0149,0.0754
-0.7709,-0.7159,-9.8114,0.0941,0.0429,0.0608
-0.9266,-0.7925,-9.9288,0.1415,0.1037,0.0346
-0.8787,-0.8739,-10.1394,0.1751,0.1767,0.0314
-0.6177,-0.9768,-10.3477,0.1841,0.2646,0.0514
-0.2418,-1.2115,-10.0987,0.1823,0.3496,0.0738
0.0575,-1.3192,-10.1323,0.1687,0.4341,0.0669
0.3352,-1.3455,-10.5536,0.1468,0.4008,0.0493
0.4884,-1.3384,-10.6087,0.1061,0.3147,0.0277
0.3831,-1.2594,-10.4411,0.0509,0.194,0.0085
0.0814,-1.0391,-10.2999,-0.0067,0.0373,-0.0056
-0.1772,-0.9122,-10.1251,-0.0584,-0.1266,-0.0242
-0.4142,-0.838,-10.5536,-0.0666,-0.2398,-0.0498
-0.6201,-0.5938,-11.1713,-0.053,-0.2822,-0.0232
-0.565,-0.8499,-10.7212,-0.0797,-0.2843,0.0432
-0.4549,-1.1372,-10.0556,-0.1092,-0.2694,0.0434
-0.5219,-1.2186,-10.3813,-0.1103,-0.2419,0.0032
-0.7302,-1.0151,-10.5824,-0.1087,-0.2486,0.0072
-0.747,-0.9098,-10.0365,-0.1284,-0.2467,0.0426
-0.6464,-1.142,-9.6414,-0.1266,-0.214,0.0437
-0.3017,-1.3455,-9.9311,-0.0794,-0.1196,0.012
-0.3519,-1.2929,-10.2663,-0.0288,0.0021,0.0133
-0.5722,-1.1325,-10.4387,-0.0298,-0.0005,0.0392
-0.6919,-0.8667,-10.8793,-0.0576,-0.0472,0.0192
-0.6871,-0.8499,-11.2073,-0.0927,-0.1092,0.0322
-0.0718,-1.1181,-10.896,-0.1367,-0.1559,0.0648
0.5602,-1.4629,-10.6326,-0.2238,-0.1825,0.0845
0.8068,-1.6065,-10.6159,-0.2923,-0.2324,0.0679
0.6033,-1.5514,-10.5991,-0.4008,-0.3437,0.0242
0.5698,-1.2713,-10.5656,-0.4855,-0.5524,-0.0056
0.3448,-1.0175,-9.8857,-0.5143,-0.6893,-0.0253
-0.4573,-0.589,-10.252,-0.4852,-0.7562,-0.1055
-0.9601,-0.5626,-10.7691,-0.4096,-0.7693,-0.117
-0.8068,-0.7063,-10.6374,-0.3078,-0.631,-0.0767
-0.9816,-0.7925,-9.8521,-0.2611,-0.4471,-0.0648
-1.1612,-0.8092,-9.2129,-0.2481,-0.3115,-0.0991
-1.1109,-0.6967,-9.7396,-0.1716,-0.1455,-0.1383
-1.1349,-0.3879,-11.0014,-0.0847,0.1066,-0.1077
-1.2641,-0.3783,-11.315,-0.0669,0.2342,-0.0088
-0.9481,-0.6943,-10.9439,-0.1375,0.1743,0.0
-0.2562,-0.9385,-10.4986,-0.2289,0.0983,-0.0285
-0.2131,-0.826,-10.2855,-0.2795,0.0698,-0.0442
-0.4573,-0.6321,-10.8912,-0.2832,-0.0155,-0.057
-0.4118,-0.5267,-11.3916,-0.2542,-0.0496,-0.0434
-0.51,-0.4741,-11.2815,-0.2646,-0.0554,-0.036
-0.7685,-0.5578,-10.7428,-0.2878,-0.0866,-0.0677
-0.6201,-0.656,-10.319,-0.2942,-0.1045,-0.077
-0.5794,-0.6776,-9.8809,-0.2907,-0.0648,-0.0581
-0.9026,-0.5483,-9.8162,-0.2806,-0.0258,-0.0402
-1.1827,-0.3711,-10.094,-0.2603,0.0008,-0.0232
-0.814,-0.3879,-10.647,-0.222,0.0663,0.0019
-0.3663,-0.6656,-10.4962,-0.1927,0.1543,0.0301
-0.1125,-0.8763,-9.8138,-0.2081,0.1892,0.025
-0.0024,-0.8787,-9.1602,-0.2427,0.2001,0.0171
0.0527,-0.6823,-8.7173,-0.219,0.1791,0.0306
0.012,-0.3232,-8.2624,-0.1103,0.162,0.0592
-0.2634,0.1173,-7.9272,0.0682,0.1338,0.0741
-0.3543,0.4094,-7.9464,0.2928,0.0877,0.0759
-0.1724,0.4717,-8.4228,0.5183,0.0807,0.0821
-0.3519,0.237,-9.1506,0.7234,0.0917,0.0871
-0.261,-0.1053,-10.3286,0.8663,0.0666,0.0882
-0.0048,-0.5363,-11.5209,0.9374,0.0053,0.0866
0.1556,-0.7709,-12.0955,0.9212,-0.0898,0.0925
0.1006,-0.9433,-11.5448,0.8196,-0.1721,0.0754
-0.2993,-0.9457,-10.7428,0.7013,-0.1804,0.0477
-0.7757,-0.9601,-10.75,0.6094,-0.1266,0.0317
-1.008,-0.9673,-11.224,0.6358,-0.1191,-0.0013
-0.8787,-0.9361,-12.2775,0.6281,-0.1692,0.033
-0.7207,-1.0367,-12.4163,0.5473,-0.1881,0.0546
-0.8643,-1.1803,-11.5424,0.4141,-0.2257,0.0472
-0.9098,-1.1205,-10.8888,0.3174,-0.2582,0.0213
-1.2067,-0.9433,-10.75,0.2862,-0.2569,-0.0075
-1.5131,-0.8284,-10.8697,0.2886,-0.2121,-0.012
-1.7382,-0.7111,-10.9942,0.3043,-0.141,-0.0056
-1.6496,-0.6393,-11.0373,0.3333,-0.0421,-0.0032
-1.6735,-0.6752,-11.0708,0.3608,0.1005,0.0027
-1.652,-0.8236,-11.0804,0.3629,0.2198,0.0147
-1.5443,-0.9457,-11.2384,0.3512,0.2984,0.0232
-1.2761,-1.1803,-11.212,0.3179,0.3429,0.037
-0.8499,-1.3001,-10.8218,0.2563,0.3834,0.0496
-0.6105,-1.3192,-10.3741,0.2009,0.4215,0.0624
-0.4429,-1.3336,-10.228,0.1796,0.4319,0.0621
-0.2777,-1.391,-10.2185,0.2012,0.4301,0.0434
-0.1077,-1.5945,-10.1466,0.2284,0.3813,0.0437
0.4286,-1.6281,-9.979,0.2641,0.3581,0.0139
0.6033,-1.6233,-9.9168,0.2819,0.3898,-0.0322
0.4477,-1.6017,-10.1323,0.2817,0.3808,-0.0727
0.4094,-1.6113,-10.1514,0.2625,0.3307,-0.0957
0.1556,-1.6712,-9.9671,0.2547,0.3195,-0.1359
-0.2203,-1.6496,-9.651,0.2356,0.2718,-0.1788
-0.1628,-1.5107,-9.7229,0.2062,0.218,-0.2108
0.3232,-1.4988,-10.1586,0.1884,0.284,-0.1966
0.2873,-1.3336,-10.0437,0.2369,0.4879,-0.1236
-0.3735,-0.7949,-9.9695,0.2499,0.6696,-0.1585
0.5459,-1.2953,-10.6183,0.2004,0.805,-0.2878
1.4533,-2.0662,-10.2999,0.2481,0.8687,-0.2342
2.0877,-2.7749,-9.5936,0.1671,0.7786,-0.1569
1.8914,-2.806,-9.3613,-0.0384,0.5268,-0.2014
1.5634,-2.2027,-10.0604,-0.2129,0.1849,-0.2827
1.4892,-1.166,-11.3222,-0.1844,-0.0666,-0.2912
0.3735,-0.1006,-10.9511,-0.0346,-0.1881,-0.215
-1.5275,0.407,-11.224,0.0392,-0.283,-0.2393
-3.0885,1.5945,-14.3461,0.1156,-0.2923,-0.3128
-5.4684,2.1189,-14.4107,0.1362,-0.4679,-0.2515
-3.814,-0.8763,-10.7524,0.0027,-0.6614,-0.3957
-2.8323,-2.3727,-12.2296,0.1945,0.0738,-0.7288
-2.9904,-2.2386,-9.8809,0.0261,-0.0845,-0.6081
-3.7206,-1.561,-10.568,-0.0472,-0.2657,-0.0461
-5.0542,0.7781,-14.2982,0.5454,0.0133,0.3456
-4.8578,0.5435,-13.0053,0.947,0.6667,0.364
-1.9656,-3.4213,-9.9,0.8095,1.8463,0.1226
0.1963,-5.5761,-6.3877,0.5103,2.6137,-0.0893
2.2362,-5.7221,-5.3127,0.2257,2.6356,-0.0797
3.225,-3.5219,-6.3207,-0.0173,1.914,0.0352
3.3662,-1.075,-7.1299,-0.0421,1.0738,0.0448
2.7414,-0.3591,-7.7955,0.0949,0.457,-0.0426
1.6999,-0.9744,-8.4898,0.1244,0.3691,-0.0994
1.3455,-1.9225,-9.1219,0.0296,0.4223,-0.0128
1.8699,-2.5187,-9.7851,-0.1263,0.4943,0.1159
2.4517,-2.0853,-10.4962,-0.2124,0.3693,0.1348
2.4062,-1.1109,-10.7452,-0.2166,0.1364,0.1151
1.9321,-0.51,-10.8194,-0.1601,-0.1748,0.1164
1.4174,-0.5818,-10.6398,-0.0879,-0.4082,0.1268
0.7566,-1.0534,-10.1825,-0.081,-0.4967,0.1343
0.2969,-1.3838,-9.8545,-0.1226,-0.4716,0.1303
-0.0407,-1.391,-9.5888,-0.1514,-0.3709,0.13
0.0575,-1.257,-9.5792,-0.1466,-0.2353,0.1343
0.5052,-1.2258,-9.6175,-0.1162,-0.1186,0.1346
1.2234,-1.1851,-9.7205,-0.0829,-0.004,0.1103
1.8962,-1.312,-9.6079,-0.0826,0.0426,0.0632
2.3008,-1.3815,-9.596,-0.0933,0.033,0.048
2.2721,-1.3072,-9.6558,-0.0794,-0.0362,0.0453
2.0231,-1.2617,-9.675,-0.0634,-0.1343,0.0522
1.7166,-1.2857,-9.5816,-0.0541,-0.23,0.0581
1.3838,-1.3743,-9.6726,-0.0642,-0.295,0.0541
1.0774,-1.3719,-9.8234,-0.0727,-0.3206,0.0466
0.9074,-1.3288,-10.1107,-0.0754,-0.3166,0.0632
1.0127,-1.3264,-10.4531,-0.0813,-0.3008,0.0911
1.1372,-1.3767,-10.7691,-0.0783,-0.3091,0.0999
1.1588,-1.336,-10.9271,-0.0759,-0.3888,0.1002
1.0487,-1.2115,-10.896,-0.0805,-0.5185,0.0951
0.5219,-1.0295,-11.0708,-0.0703,-0.6246,0.0666
0.0503,-0.972,-11.0061,-0.0738,-0.6742,0.044
-0.3376,-1.0223,-11.0061,-0.0767,-0.6374,0.0397
-0.4381,-1.1588,-10.975,-0.0839,-0.551,0.0565
-0.328,-1.233,-10.8697,-0.0991,-0.4506,0.0626
-0.1484,-1.2809,-10.726,-0.1226,-0.381,0.0576
0.0766,-1.3048,-10.501,-0.1383,-0.3267,0.048
0.1628,-1.2522,-10.2735,-0.1471,-0.2896,0.0458
0.2011,-1.2306,-10.0317,-0.1514,-0.2582,0.0544
0.3256,-1.2953,-9.833,-0.1506,-0.214,0.057
0.4334,-1.3216,-9.7229,-0.1404,-0.1495,0.0637
0.5052,-1.2929,-9.7612,-0.1284,-0.0717,0.0831
0.7326,-1.2641,-9.8019,-0.1002,0.0179,0.1132
0.905,-1.3671,-9.8737,-0.0775,0.0938,0.1287
1.008,-1.3575,-10.0796,-0.0589,0.1236,0.1239
0.9218,-1.3408,-10.082,-0.0514,0.1164,0.1274
0.6728,-1.2043,-10.1418,-0.0426,0.1029,0.126
0.4501,-1.0894,-10.3214,-0.0368,0.0922,0.1236
0.2993,-1.0391,-10.5896,-0.0277,0.0911,0.1218
0.1006,-1.0295,-10.9846,-0.0107,0.0837,0.1194
-0.0814,-0.9673,-11.1737,-0.0075,0.0541,0.1087
-0.17,-0.9002,-11.2695,-0.0125,0.0072,0.0919
-0.1772,-0.929,-11.3485,-0.0099,-0.0586,0.0759
-0.2107,-0.9074,-11.3006,-0.02,-0.1085,0.0581
-0.2418,-0.8547,-11.0995,-0.0168,-0.1423,0.0365
-0.2059,-1.0463,-10.8912,-0.0338,-0.1623,0.0317
-0.1197,-1.1133,-10.6805,-0.049,-0.1793,0.0376
0.0048,-1.1468,-10.3717,-0.0512,-0.2068,0.0426
0.1269,-1.1492,-10.2113,-0.0418,-0.2233,0.0477
0.2801,-1.142,-10.0987,-0.0352,-0.2286,0.0584
0.3208,-1.2761,-10.1658,-0.0298,-0.1927,0.064
0.2705,-1.3024,-10.137,-0.0139,-0.1724,0.0727
0.2586,-1.3791,-10.1873,-0.0013,-0.1487,0.089
0.2251,-1.3144,-10.1706,0.0144,-0.1138,0.0975
0.2346,-1.4126,-10.1466,0.0242,-0.0775,0.1042
0.1077,-1.3767,-10.3358,0.0248,-0.0429,0.1071
0.1101,-1.3767,-10.4267,0.0256,-0.0195,0.0954
0.0192,-1.3001,-10.3932,0.0242,-0.012,0.0911
-0.0335,-1.1779,-10.4842,0.0229,-0.0192,0.0826
-0.1389,-1.0774,-10.477,0.0264,-0.0187,0.0709
-0.2155,-1.0798,-10.5608,0.0304,-0.012,0.065
-0.316,-1.0894,-10.6303,0.0282,-0.0192,0.0618
-0.3208,-1.0774,-10.7021,0.0184,-0.0469,0.0554
-0.3472,-1.0965,-10.647,0.0083,-0.0735,0.0466
-0.3065,-1.1037,-10.6446,-0.0011,-0.101,0.0325
-0.3663,-1.0056,-10.6183,-0.0091,-0.134,0.0221
-0.4118,-0.9864,-10.5273,-0.0077,-0.1617,0.0168
-0.4669,-0.9864,-10.5465,-0.0024,-0.1801,0.0088
-0.3998,-1.0654,-10.5177,0.0051,-0.1649,0.0101
-0.328,-1.1947,-10.3406,0.0051,-0.1383,0.0192
-0.2538,-1.2426,-10.2687,0.0077,-0.1106,0.0258
-0.1604,-1.2953,-10.1897,0.0091,-0.0869,0.025
-0.1125,-1.2378,-10.1347,0.016,-0.0685,0.0269
-0.0479,-1.2594,-10.1754,0.0211,-0.0536,0.0272
0.0359,-1.2809,-10.1347,0.0179,-0.033,0.0266
0.1053,-1.2234,-10.1131,0.0232,-0.0258,0.0261
0.0982,-1.1947,-10.1562,0.025,-0.0274,0.0237
0.079,-1.166,-10.2256,0.025,-0.0384,0.0144
0.146,-1.1708,-10.2639,0.0229,-0.0474,0.0112
0.2035,-1.2019,-10.2807,0.0195,-0.0584,0.0115
0.261,-1.2019,-10.2232,0.0152,-0.0735,0.0059
0.2346,-1.2019,-10.1059,0.0128,-0.1031,-0.0003
0.2682,-1.1564,-10.2017,0.0117,-0.1407,-0.0005
0.182,-1.1444,-10.2017,0.008,-0.1751,-0.0045
0.1508,-1.1061,-10.3262,0.0053,-0.2129,-0.0136
0.1413,-1.1013,-10.3813,0.0048,-0.2523,-0.0133
0.0311,-1.1301,-10.3358,0.0013,-0.2774,-0.0101
-0.0718,-1.1229,-10.2544,0.0016,-0.2966,-0.0099
-0.1748,-1.1205,-10.3286,0.012,-0.3008,-0.0091
-0.2035,-1.0989,-10.2759,0.0133,-0.2992,-0.0096
-0.2107,-1.1301,-10.2615,0.0123,-0.287,-0.0085
-0.2729,-1.2043,-10.2807,0.0077,-0.2673,-0.0029
-0.1891,-1.2354,-10.2711,0.0064,-0.2534,0.0085
-0.2203,-1.1875,-10.3094,0.0003,-0.2505,0.0192
-0.1365,-1.1684,-10.3358,-0.0101,-0.2494,0.0253
-0.1891,-1.1995,-10.386,-0.0141,-0.2593,0.0242
-0.17,-1.166,-10.3286,-0.025,-0.2798,0.0234
-0.0575,-1.2713,-10.386,-0.0389,-0.2886,0.0229
-0.0455,-1.2929,-10.2951,-0.0464,-0.2747,0.0173
0.0024,-1.312,-10.343,-0.0392,-0.2526,0.0101
0.0,-1.3431,-10.2496,-0.0381,-0.2233,0.0096
0.0718,-1.3838,-10.2496,-0.0448,-0.215,0.0155
0.1413,-1.4293,-10.1945,-0.0552,-0.2185,0.0229
0.0168,-1.3479,-10.1634,-0.0653,-0.2196,0.0232
-0.0934,-1.257,-10.0604,-0.0695,-0.2372,0.0147
-0.2921,-1.1732,-10.058,-0.0738,-0.2372,0.0075
-0.3926,-1.0726,-10.0868,-0.0682,-0.2156,0.004
-0.4741,-1.0726,-10.1347,-0.0597,-0.1897,0.0021
-0.5626,-1.0606,-10.2687,-0.0522,-0.1591,0.0032
-0.5914,-1.0247,-10.2663,-0.0506,-0.1276,0.0176
-0.5459,-1.0175,-10.3837,-0.0434,-0.1013,0.0357
-0.4094,-1.075,-10.4052,-0.0333,-0.0797,0.0565
-0.3807,-1.142,-10.3525,-0.0253,-0.0679,0.0634
-0.4142,-1.1732,-10.3908,-0.024,-0.0568,0.0504
-0.4166,-1.1612,-10.5177,-0.0189,-0.056,0.037
-0.3591,-1.1875,-10.5273,-0.0136,-0.0544,0.0336
-0.0455,-1.2546,-10.5201,-0.0107,-0.0488,0.0448
0.012,-1.3455,-10.4698,-0.024,-0.0288,0.0629
-0.0479,-1.3767,-10.4124,-0.0464,-0.0306,0.0632
0.0072,-1.3815,-10.2376,-0.0751,-0.0573,0.0597
0.0982,-1.3096,-9.9479,-0.1026,-0.0663,0.0602
0.1915,-1.2498,-9.821,-0.1247,-0.0578,0.0757
0.1365,-1.2019,-9.7061,-0.1266,-0.0376,0.0813
0.1125,-1.1037,-9.6989,-0.1031,-0.0237,0.0789
0.0838,-1.1516,-9.7971,-0.0797,-0.0117,0.0877
-0.0335,-1.2977,-9.7971,-0.0634,0.0003,0.0807
-0.0622,-1.336,-9.9503,-0.0829,0.0099,0.0624
-0.1149,-1.3168,-9.9671,-0.1031,0.0298,0.0536
-0.1604,-1.1516,-10.0221,-0.113,0.0509,0.0616
-0.2945,-0.9577,-10.1394,-0.0983,0.0629,0.0655
-0.2418,-0.9337,-10.2185,-0.0693,0.0711,0.0525
-0.1604,-0.9912,-10.307,-0.0648,0.0797,0.0416
-0.0622,-1.0918,-10.3597,-0.0669,0.0666,0.0362
-0.079,-1.0247,-10.4315,-0.0605,0.0434,0.0306
-0.1077,-0.9361,-10.4866,-0.0424,-0.0104,0.0272
0.0192,-0.8978,-10.5225,-0.0306,-0.0645,0.0195
0.0862,-0.826,-10.7404,-0.0304,-0.0903,0.0181
-0.0024,-0.9002,-10.7811,-0.0147,-0.0845,0.0091
-0.1796,-0.9146,-10.9271,0.0237,-0.0941,0.0008
-0.3232,-1.0654,-10.9319,0.0229,-0.0917,0.0035
-0.4238,-1.2234,-10.8625,-0.0021,-0.0818,-0.0077
-0.5171,-1.2378,-10.7308,-0.0368,-0.0661,-0.0149
-0.5531,-1.1037,-10.4914,-0.0514,-0.025,-0.0224
-0.5483,-1.0175,-10.3334,-0.0648,0.0005,-0.036
-0.4717,-1.0511,-9.9814,-0.0986,-0.0131,-0.0344
-0.3615,-1.1564,-9.8186,-0.1175,-0.0104,-0.0354
-0.3567,-1.2546,-9.7109,-0.1143,-0.02,-0.0389
-0.3304,-1.2186,-9.9048,-0.0933,-0.0378,-0.0277
-0.3926,-1.0822,-10.0126,-0.0621,-0.0368,-0.0131
-0.4573,-1.0199,-10.3286,-0.0208,-0.0317,-0.0024
-0.5339,-0.9457,-10.4555,0.0274,-0.0184,0.0048
-0.4741,-1.0271,-10.6997,0.0717,0.0141,0.0029
-0.5339,-1.0463,-10.9415,0.1106,0.0775,-0.0109
-0.5028,-1.0822,-11.1091,0.0954,0.1338,-0.0032
-0.3926,-1.1133,-11.1522,0.065,0.1833,0.0115
-0.2873,-1.0918,-10.9247,0.0349,0.2092,0.0173
-0.1221,-0.9625,-10.8194,0.0261,0.2094,0.0125
0.0479,-0.8308,-10.8218,0.0416,0.1639,0.0019
0.0192,-0.7183,-10.7595,0.0621,0.1061,-0.0032
0.0263,-0.735,-10.5656,0.0698,0.0346,-0.0032
-0.1053,-0.8595,-10.2711,0.061,-0.0362,-0.0136
-0.2227,-0.984,-10.2161,0.0464,-0.0957,-0.0274
-0.4022,-1.0151,-10.4244,0.036,-0.1338,-0.0147
-0.5315,-1.0295,-10.4459,0.0155,-0.1564,0.0085
-0.4669,-1.0367,-10.3908,-0.0029,-0.142,0.0195
-0.4693,-1.0439,-10.2879,-0.0173,-0.1026,0.0373
-0.4764,-0.984,-10.2208,-0.0072,-0.0624,0.0453
-0.4549,-0.9505,-10.1825,0.0173,-0.0328,0.0442
-0.4046,-1.0104,-10.2424,0.0437,-0.0125,0.04
-0.4645,-1.0534,-10.3597,0.0703,0.0104,0.0408
-0.4812,-1.0511,-10.6087,0.0954,0.029,0.0456
-0.4693,-1.1109,-10.7452,0.1058,0.0648,0.0501
-0.4477,-1.0582,-10.8098,0.0887,0.1069,0.0645
-0.3208,-1.1205,-10.6374,0.0781,0.1458,0.0757
-0.1652,-1.1061,-10.5489,0.0666,0.1727,0.0733
-0.067,-1.1229,-10.398,0.0493,0.1788,0.0624
-0.1484,-1.0965,-10.2208,0.0192,0.1721,0.0538
-0.1269,-1.1037,-10.1059,0.0,0.1482,0.0496
-0.1173,-1.0319,-10.0556,-0.0067,0.1207,0.0488
-0.1796,-0.996,-10.0604,-0.0035,0.0949,0.0466
-0.1101,-0.9601,-10.0652,-0.0067,0.0727,0.0474
0.2227,-1.0247,-10.0652,0.0032,0.0602,0.0512
0.4788,-1.1756,-9.7588,0.0165,0.0839,0.048
0.565,-1.2354,-9.5217,0.0384,0.1308,0.0229
0.3448,-1.1612,-9.5122,0.0829,0.1575,-0.0171
0.1006,-1.0582,-9.8234,0.1311,0.1617,-0.0472
-0.1796,-1.0726,-10.1825,0.1777,0.1809,-0.056
-0.2825,-1.0702,-10.5058,0.1929,0.215,-0.0568
-0.2418,-1.1468,-10.8098,0.1958,0.2875,-0.0536
-0.2203,-1.1708,-10.8936,0.1721,0.3469,-0.0408
-0.1197,-1.0678,-10.7619,0.1279,0.3549,-0.0392
-0.0407,-1.0104,-10.7356,0.0773,0.3019,-0.053
0.0263,-1.0008,-10.8386,0.0362,0.1825,-0.0837
0.1676,-0.9888,-10.7212,-0.0003,0.0533,-0.1021
0.1437,-1.0989,-10.4579,-0.0205,-0.0594,-0.101
0.067,-1.0127,-10.6303,-0.0354,-0.1394,-0.0935
-0.067,-0.7685,-10.5225,-0.064,-0.1897,-0.048
-0.079,-0.7135,-9.912,-0.0981,-0.2364,-0.0237
-0.1125,-0.9074,-9.4834,-0.089,-0.2582,-0.0437
-0.2658,-1.0463,-9.5648,-0.0264,-0.2332,-0.0775
-0.6632,-1.087,-10.4435,0.0253,-0.226,-0.077
-0.838,-1.1612,-10.8146,0.0155,-0.1639,-0.0386
-0.6967,-1.3336,-10.6853,-0.0285,-0.0416,0.0248
-0.2155,-1.4269,-10.3262,-0.0887,0.1042,0.0701
0.34,-1.4293,-10.1873,-0.1535,0.1948,0.06
0.8308,-1.3192,-10.2663,-0.1916,0.2001,0.0155
0.8092,-1.1372,-10.1466,-0.2129,0.1159,0.0027
0.668,-1.0343,-10.0748,-0.2105,-0.0424,0.0013
0.4118,-1.0223,-10.1945,-0.1865,-0.2121,-0.0083
0.2586,-1.008,-10.7212,-0.1663,-0.3392,-0.0232
0.3304,-1.2067,-11.0828,-0.1791,-0.4133,-0.0051
0.4501,-1.3647,-10.9367,-0.2449,-0.4684,0.016
0.6201,-1.4461,-10.6494,-0.3451,-0.5385,0.0011
0.7757,-1.4844,-10.3813,-0.4668,-0.6411,-0.0269
0.7614,-1.4509,-9.7683,-0.5431,-0.7666,-0.0424
0.6919,-1.1588,-8.8633,-0.5713,-0.9012,-0.0581
0.1053,-0.7111,-8.5497,-0.5239,-0.9433,-0.0994
-1.0175,-0.0192,-9.1626,-0.3691,-0.9132,-0.1391
-1.9225,0.2562,-10.5441,-0.1687,-0.7893,-0.1559
-1.9872,-0.0551,-11.3461,-0.0035,-0.5891,-0.0837
-0.9984,-0.8475,-11.2049,0.0536,-0.3568,0.0123
0.0,-1.6472,-10.5058,-0.0011,-0.1394,0.0322
0.1149,-1.9058,-9.9072,-0.1316,-0.0482,-0.0274
-0.1197,-1.2689,-10.489,-0.2617,-0.1503,-0.13
-0.2059,-0.8643,-11.8154,-0.3027,-0.2454,-0.137
-0.2298,-0.6393,-11.3389,-0.3027,-0.2998,-0.0418
0.1006,-0.8475,-9.9216,-0.3357,-0.4021,-0.0445
0.4501,-0.9098,-9.5337,-0.3432,-0.4756,-0.1103
0.486,-0.7494,-10.1562,-0.2771,-0.4397,-0.1679
-0.1293,-0.6105,-10.7978,-0.2057,-0.4077,-0.1631
-0.7805,-0.6009,-10.9798,-0.202,-0.4455,-0.1436
-1.0151,-0.7614,-11.2647,-0.2537,-0.4469,-0.1204
-0.814,-0.9026,-11.1737,-0.3235,-0.3619,-0.1135
-0.6776,-0.8978,-10.2639,-0.3837,-0.1833,-0.129
-1.0295,-0.5315,-10.2232,-0.3515,0.0035,-0.1524
-1.0965,-0.2658,-10.884,-0.2555,0.1522,-0.1047
-1.834,0.1365,-10.3525,-0.1743,0.1724,-0.0632
-2.4469,0.5148,-10.2879,-0.2366,0.1085,-0.0506
-1.6664,0.1867,-10.0796,-0.2486,0.2132,-0.0642
-1.0151,-0.2083,-9.8928,-0.2025,0.3299,-0.0213
-0.6081,-0.3879,-10.2544,-0.1841,0.3709,0.0024
-0.3663,-0.2538,-10.7236,-0.2366,0.2958,-0.0013
-0.1604,-0.3041,-10.6853,-0.2681,0.1708,0.0099
0.0,-0.3543,-10.3358,-0.2491,0.0226,0.0381
0.1867,-0.4166,-9.9455,-0.1953,-0.053,0.0442
0.2801,-0.5195,-9.4571,-0.1394,-0.0488,0.0274
-0.0455,-0.4884,-9.0261,-0.1066,-0.012,0.0096
-0.261,-0.3711,-8.5904,-0.0544,-0.0051,0.028
-0.3041,-0.3065,-8.2672,0.0242,0.0317,0.0701
-0.091,-0.1484,-8.2815,0.1569,0.0693,0.1039
0.1915,-0.182,-8.3462,0.3174,0.1303,0.1335
0.1508,-0.1891,-8.5832,0.4668,0.1596,0.1338
0.0886,-0.0982,-9.3685,0.5907,0.1687,0.1159
0.0215,-0.2155,-10.7212,0.6728,0.1705,0.0997
0.2705,-0.4884,-11.5137,0.7424,0.109,0.0885
0.3903,-0.4741,-11.5257,0.741,-0.0067,0.0962
0.1796,-0.5028,-11.1761,0.692,-0.1164,0.0666
-0.2227,-0.4908,-11.1354,0.6904,-0.1998,0.0338
-0.5004,-0.4046,-11.1761,0.7317,-0.2657,0.0171
-0.7853,-0.3687,-11.3437,0.7666,-0.3136,0.0077
-1.0822,-0.4908,-11.4826,0.7749,-0.3576,-0.0027
-1.2258,-0.7087,-11.8154,0.7458,-0.3608,0.0032
-1.2594,-0.838,-12.1194,0.6795,-0.3563,0.0221
-1.3168,-1.3216,-11.746,0.4738,-0.3075,0.0677
-1.6041,-1.2019,-11.4802,0.3254,-0.267,0.0211
-1.7023,-0.9481,-11.3557,0.2329,-0.2105,0.0072
-1.8866,-0.6584,-11.3653,0.2001,-0.1255,0.0296
-1.9321,-0.5866,-11.4179,0.1865,-0.0309,0.0589
-1.7214,-0.5459,-11.1713,0.1769,0.0568,0.0911
-1.3144,-0.8571,-10.7117,0.1783,0.1415,0.1156
-1.0918,-0.9912,-10.331,0.207,0.1865,0.138
-0.7973,-1.1588,-10.398,0.2302,0.2324,0.1359
-0.7039,-1.3048,-10.5417,0.2475,0.2902,0.1348
-0.6033,-1.403,-10.2879,0.2356,0.3096,0.1391
-0.4166,-1.5227,-9.8641,0.2148,0.3088,0.1463
0.0551,-1.6855,-9.675,0.2292,0.287,0.1343
0.6919,-2.0423,-9.2392,0.2846,0.3166,0.1354
0.9649,-2.2266,-9.3733,0.3355,0.3317,0.0853
0.8619,-2.1835,-10.0556,0.3275,0.2787,0.0035
0.316,-1.9297,-10.3046,0.2779,0.1529,-0.0392
0.2131,-1.7262,-10.1969,0.2276,0.0139,-0.0608
0.3496,-1.4653,-10.252,0.2052,0.0221,-0.0703
-0.2753,-1.0199,-9.9,0.2169,0.1204,-0.048
-1.2258,-0.6009,-9.7324,0.1911,0.1609,-0.1119
-0.2849,-0.929,-10.3813,0.1604,0.2108,-0.215
0.7925,-1.7717,-10.1562,0.2294,0.3096,-0.0906
1.4653,-2.411,-10.0102,0.1847,0.2742,0.0053
1.6424,-2.66,-9.9742,-0.0341,0.0488,-0.0725
1.1947,-2.4086,-10.0461,-0.239,-0.2974,-0.1849
0.3496,-1.5802,-10.5393,-0.3192,-0.6312,-0.2417
-0.4932,-0.5076,-11.3725,-0.2593,-0.8396,-0.2121
-1.3623,0.0718,-11.157,-0.1316,-0.8855,-0.1436
-2.1955,0.3328,-10.6662,-0.0117,-0.7893,-0.1386
-2.5857,0.4525,-10.7332,0.0608,-0.611,-0.1671
-2.3822,0.431,-11.5808,0.1287,-0.3776,-0.1479
-1.8914,0.3208,-13.7499,0.2481,-0.1508,-0.0381
-2.162,-1.1851,-10.9343,0.1391,-0.307,0.0093
-0.3615,-3.2465,-9.2368,-0.0805,-0.2329,-0.2385
-1.1253,-2.715,-10.8433,-0.1937,-0.0565,-0.5388
-1.6209,-1.5562,-10.1466,-0.3501,-0.6392,-0.3552
-3.0933,-0.5962,-10.0102,-0.2667,-0.9808,-0.0669
-4.4365,1.008,-12.639,0.1274,-0.7466,0.065
-6.4643,1.3982,-13.0676,0.5963,0.004,0.2004
-6.2968,-0.3879,-11.6191,0.6917,0.7128,0.1535
-3.6943,-3.3399,-9.9503,0.4498,1.7123,0.0434
-0.4262,-4.5825,-8.351,0.0826,2.2849,0.0613
1.8148,-4.2641,-7.7213,-0.2108,2.1506,0.1439
3.3471,-2.4277,-7.7045,-0.3269,1.4277,0.1809
2.976,-0.5962,-8.0852,-0.1972,0.6976,0.0893
1.6592,-0.103,-8.2839,-0.008,0.1772,-0.0536
0.0551,-0.3663,-8.8466,0.1801,0.0879,-0.0765
-1.0415,-1.1061,-9.7564,0.2036,0.2462,0.0203
-0.723,-1.9106,-9.8306,0.0821,0.4668,0.0938
0.0551,-1.9513,-9.9,-0.0282,0.6675,0.0941
0.589,-1.5347,-10.2903,-0.0458,0.7536,0.0759
0.8021,-1.0702,-10.5058,0.0171,0.7144,0.0794
0.8499,-0.9433,-10.6111,0.0882,0.6003,0.1399
0.7542,-1.0104,-10.659,0.118,0.4549,0.1719
0.5052,-1.0989,-10.7571,0.0922,0.32,0.1631
0.1532,-1.1325,-11.0038,0.0413,0.2558,0.1354
-0.1604,-1.0247,-11.1737,-0.0083,0.2305,0.1162
-0.0934,-1.0774,-11.0923,-0.0442,0.2174,0.1116
0.3232,-1.1061,-10.9439,-0.0749,0.1625,0.1124
0.7087,-1.3096,-10.7404,-0.1119,0.0677,0.1053
0.9361,-1.2474,-10.422,-0.1447,-0.0826,0.0901
0.9313,-1.2067,-9.8569,-0.1865,-0.2542,0.0815
1.0151,-1.1325,-9.0644,-0.1809,-0.381,0.0735
0.8715,-1.1732,-8.6095,-0.1506,-0.4045,0.0874
0.7685,-1.2306,-8.4683,-0.1202,-0.3957,0.1116
0.6297,-1.1277,-8.7293,-0.0941,-0.3171,0.126
0.5052,-1.1109,-9.1387,-0.0738,-0.2033,0.1156
0.3759,-0.9649,-9.5265,-0.0496,-0.0933,0.1114
0.4286,-0.9912,-9.7612,-0.0306,0.0285,0.118
0.4884,-0.9122,-10.0317,0.0368,0.0986,0.109
0.5842,-1.1875,-10.3166,0.04,0.1548,0.1079
0.4741,-1.3264,-10.5919,0.02,0.1524,0.0874
0.4094,-1.245,-10.6135,0.0016,0.1311,0.0642
0.407,-0.9481,-10.8553,0.0123,0.0525,0.0432
0.1987,-0.8691,-10.9367,-0.0027,-0.0173,0.0357
0.249,-0.7518,-10.8026,-0.0085,-0.1116,0.0157
0.0551,-0.7997,-10.6303,-0.016,-0.1428,-0.0019
0.0,-0.8475,-10.6111,-0.0248,-0.1791,-0.0019
-0.0455,-0.9026,-10.6159,-0.037,-0.2073,0.0075
0.0311,-0.9577,-10.6063,-0.0426,-0.2212,0.0083
0.1365,-0.9242,-10.4579,-0.0432,-0.259,0.0061
0.1365,-0.9002,-10.3813,-0.0368,-0.3051,0.012
0.0575,-0.8787,-10.343,-0.032,-0.3549,0.0179
-0.1221,-0.8978,-10.2999,-0.0221,-0.3499,0.0176
-0.2729,-0.9433,-10.3382,-0.0099,-0.3067,0.0157
-0.2634,-0.9457,-10.3717,0.0056,-0.2326,0.0189
-0.3879,-1.087,-10.4651,0.0133,-0.1284,0.0165
-0.3017,-1.1157,-10.5273,0.0213,-0.0384,0.016
-0.182,-1.0989,-10.5656,0.0211,0.0421,0.0216
-0.0192,-1.087,-10.5991,0.025,0.1085,0.0176
0.0,-1.1708,-10.5704,0.0133,0.1383,0.016
-0.0335,-1.0606,-10.5584,-0.0032,0.1127,0.0189
0.0024,-1.0702,-10.4962,-0.0123,0.0671,0.0242
-0.0982,-0.996,-10.331,-0.0163,0.024,0.0237
-0.1437,-0.9768,-10.1107,-0.0171,-0.0232,0.0237
-0.1652,-0.9313,-10.0892,-0.0213,-0.0645,0.02
-0.1796,-0.8811,-10.2568,-0.0131,-0.0927,0.025
-0.1293,-0.8332,-10.4627,0.0059,-0.1079,0.0237
-0.2083,-0.8045,-10.7571,0.0242,-0.1077,0.0216
-0.1556,-0.917,-10.8721,0.0368,-0.121,0.0176
-0.1508,-1.0606,-10.8577,0.041,-0.1234,0.0189
-0.1724,-1.1037,-10.829,0.0362,-0.1263,0.0184
-0.103,-1.1301,-10.6829,0.0197,-0.1356,0.0218
-0.0862,-1.1181,-10.6614,0.0093,-0.1636,0.0234
-0.091,-1.0343,-10.5608,0.0117,-0.1977,0.0272
-0.1173,-0.9816,-10.501,0.0195,-0.235,0.0226
-0.2729,-0.9529,-10.5465,0.0306,-0.2507,0.0139
-0.3807,-0.9673,-10.5489,0.0378,-0.2409,0.0139
-0.3448,-1.0894,-10.5177,0.0344,-0.198,0.0176
-0.2562,-1.1827,-10.5034,0.0282,-0.129,0.0165
-0.2203,-1.2067,-10.3645,0.0245,-0.0978,0.0163
-0.2083,-1.1971,-10.4148,0.0232,-0.0933,0.0141
-0.3065,-1.0894,-10.4076,0.0301,-0.0831,0.0072
-0.4621,-0.9888,-10.3238,0.0389,-0.0642,-0.0013
-0.4597,-1.0247,-10.2999,0.0461,-0.0346,-0.0011
-0.51,-1.0846,-10.3382,0.0562,-0.0035,0.0059
-0.5124,-1.1468,-10.422,0.0562,0.0216,0.0088
-0.4669,-1.142,-10.5249,0.0464,0.0354,0.0016
-0.4262,-1.1133,-10.5584,0.0378,0.0245,0.0005
-0.4022,-1.075,-10.5991,0.032,-0.0008,0.0043
-0.4166,-0.9936,-10.5632,0.0301,-0.0328,0.0072
-0.4501,-0.9553,-10.6039,0.0338,-0.0586,-0.0037
-0.5818,-0.9242,-10.6303,0.0352,-0.0765,-0.008
-0.6129,-0.9601,-10.4698,0.0344,-0.0719,-0.0051
-0.68,-1.0319,-10.2927,0.0216,-0.0509,0.0027
-0.5171,-1.1349,-10.0892,0.0067,-0.0325,0.0096
-0.2346,-1.1827,-9.8043,-0.0016,-0.004,0.0112
0.0239,-1.1732,-9.6462,-0.0013,0.0147,0.016
0.2203,-1.2115,-9.6414,-0.0067,-0.0035,0.0213
0.2993,-1.1325,-9.6798,-0.0016,-0.0533,0.029
0.2586,-1.0726,-9.7252,0.0144,-0.1071,0.029
0.0168,-0.9505,-9.9982,0.0354,-0.13,0.0187
-0.2251,-0.9792,-10.1275,0.0554,-0.1215,0.0032
-0.3663,-1.0678,-10.3382,0.0578,-0.0898,-0.0011
-0.4214,-1.0726,-10.5393,0.0605,-0.0482,0.0016
-0.3424,-1.0247,-10.6374,0.06,-0.0213,0.0043
-0.3376,-1.0104,-10.671,0.061,-0.0155,0.0016
-0.2945,-0.9577,-10.6326,0.0632,-0.0474,-0.0045
-0.2849,-0.9888,-10.568,0.0666,-0.0906,-0.0125
-0.3567,-1.0295,-10.5201,0.0586,-0.1143,-0.0211
-0.3687,-1.0582,-10.5393,0.0477,-0.1412,-0.0229
-0.2969,-1.1085,-10.4818,0.0394,-0.1319,-0.0195
-0.2538,-1.1133,-10.477,0.0357,-0.1146,-0.0131
-0.2179,-1.1732,-10.343,0.024,-0.1047,-0.0083
-0.1437,-1.1492,-10.0916,0.0125,-0.0927,-0.0061
-0.0694,-1.154,-9.9527,0.0,-0.0826,-0.0093
-0.1006,-1.1301,-9.7947,-0.0035,-0.0943,-0.0208
-0.2131,-1.1205,-9.7923,-0.0067,-0.1295,-0.024
-0.2658,-1.075,-9.9096,-0.0064,-0.1548,-0.0234
-0.4022,-1.0822,-9.9144,-0.0027,-0.1633,-0.0176
-0.5315,-1.1372,-10.1203,-0.0064,-0.1535,-0.0149
-0.5674,-1.0774,-10.3142,-0.0051,-0.1396,-0.0218
-0.7135,-1.0918,-10.3956,-0.0053,-0.1242,-0.0203
-0.735,-1.0271,-10.4531,-0.0016,-0.1239,-0.0107
-0.6584,-1.0391,-10.4339,-0.0085,-0.1055,0.0011
-0.6249,-1.0391,-10.4627,-0.0008,-0.0858,0.0024
-0.7015,-1.0487,-10.3884,0.0099,-0.0648,-0.0029
-0.6033,-1.0558,-10.5105,0.0205,-0.056,-0.0029
-0.261,-1.1301,-10.4291,0.0298,-0.0274,0.0189
0.0838,-1.2139,-10.5345,0.0416,0.0203,0.0496
0.1724,-1.2641,-10.4651,0.0544,0.0466,0.057
0.1652,-1.3024,-10.4842,0.048,0.0362,0.0477
0.1365,-1.2713,-10.4651,0.0317,0.0328,0.0368
-0.0168,-1.3001,-10.2304,-0.0085,0.0352,0.0226
-0.0455,-1.3144,-9.9335,-0.0517,0.0237,0.0045
-0.2179,-1.2258,-9.7085,-0.089,0.0232,-0.0077
-0.3567,-1.0726,-9.6007,-0.1143,0.0067,-0.0064
-0.2107,-1.0463,-9.5648,-0.1343,-0.0083,-0.0005
0.0239,-1.0175,-9.6606,-0.1311,0.0048,0.0059
-0.091,-1.0127,-9.8737,-0.1156,-0.0125,0.0
-0.0742,-1.0415,-10.0102,-0.1119,-0.045,-0.0085
-0.1604,-1.0391,-10.0317,-0.1119,-0.0648,-0.0003
-0.2825,-0.9864,-10.1275,-0.1055,-0.0645,0.0109
-0.4501,-0.9266,-10.1203,-0.085,-0.032,0.0133
-0.3328,-0.8571,-10.1035,-0.0562,0.0144,0.0099
-0.2442,-0.9457,-10.1825,-0.0293,0.0733,0.0064
-0.1245,-1.0175,-10.173,-0.0075,0.1202,0.0099
-0.0455,-1.1181,-10.2783,-0.0056,0.1522,0.0117
-0.0599,-1.1779,-10.3166,-0.0213,0.1495,0.0181
-0.0934,-1.1732,-10.3741,-0.0272,0.0946,0.0149
-0.0335,-1.1205,-10.3789,-0.0274,0.0389,0.0
-0.0838,-1.1013,-10.5417,-0.0301,-0.0109,-0.0171
-0.0192,-1.1349,-10.5776,-0.037,-0.0389,-0.0296
-0.0742,-1.0942,-10.4986,-0.0368,-0.0706,-0.0445
-0.2131,-1.0271,-10.556,-0.0352,-0.0922,-0.0514
-0.3855,-1.0199,-10.6398,-0.033,-0.1258,-0.0522
-0.3759,-1.0032,-10.7715,-0.025,-0.1607,-0.0544
-0.4094,-0.9864,-10.8577,-0.0264,-0.1676,-0.0576
-0.5148,-1.087,-10.6063,-0.0432,-0.1529,-0.0616
-0.4166,-1.1277,-10.5177,-0.0512,-0.1119,-0.061
-0.4477,-1.1372,-10.5584,-0.0546,-0.06,-0.048
-0.4525,-1.1612,-10.5489,-0.0477,-0.0205,-0.0378
-0.5411,-1.1061,-10.7332,-0.0386,0.0067,-0.041
-0.6297,-1.0247,-10.7164,-0.0328,0.012,-0.0506
-0.6704,-0.9649,-10.6015,-0.0352,0.0203,-0.0589
-0.6704,-1.0774,-10.3908,-0.0536,0.0514,-0.0544
-0.6536,-1.0558,-10.3597,-0.056,0.0823,-0.0517
-0.6608,-0.9744,-10.4962,-0.048,0.1218,-0.0421
-0.7278,-0.8332,-10.6231,-0.0213,0.1415,-0.0472
-0.565,-0.8954,-10.7236,-0.0051,0.166,-0.0541
-0.4142,-0.9553,-10.7045,-0.0056,0.1916,-0.0533
-0.1053,-1.0127,-10.58,-0.0168,0.2377,-0.0376
0.0694,-1.1253,-10.5345,-0.0248,0.2683,-0.0093
0.2298,-1.2139,-10.3406,-0.0504,0.235,0.0072
0.3759,-1.2594,-10.2352,-0.0997,0.1729,0.0115
0.261,-1.2809,-10.0556,-0.1522,0.089,0.0096
0.1365,-1.1492,-10.0365,-0.1708,-0.0067,0.02
0.0551,-0.9194,-10.0173,-0.1503,-0.0735,0.04
-0.0527,-0.7183,-9.9886,-0.0983,-0.105,0.0485
-0.2753,-0.4645,-10.1849,-0.0282,-0.0909,0.0424
-0.498,-0.3663,-10.3549,0.0498,-0.0618,0.0378
-0.6369,-0.3926,-10.2472,0.121,-0.0213,0.0205
-0.6177,-0.5746,-10.3501,0.15,0.0298,-0.0104
-0.7087,-0.7398,-10.4651,0.1402,0.0922,-0.0261
-0.6225,-0.8835,-10.5704,0.0967,0.1455,-0.0218
-0.5387,-0.9649,-10.5512,0.0573,0.1828,-0.0053
-0.2945,-0.8691,-10.4962,0.0336,0.1895,0.0077
-0.17,-0.8523,-10.635,0.0408,0.1756,0.0192
-0.0455,-0.8212,-10.8721,0.0674,0.1228,0.0179
0.0551,-0.838,-10.9439,0.0858,0.0434,0.0115
0.1772,-0.9673,-10.6326,0.0821,-0.0197,0.0152
0.1269,-1.1396,-10.2639,0.0757,-0.0759,0.0176
0.0646,-1.2186,-10.1394,0.069,-0.1167,0.0104
-0.1269,-1.2282,-10.2687,0.0554,-0.1306,0.0083
-0.3328,-1.1229,-10.6183,0.0264,-0.1284,0.0242
-0.2993,-0.9481,-10.7619,-0.0027,-0.1119,0.0517
-0.1293,-0.905,-10.7284,-0.0176,-0.0757,0.0805
-0.0646,-0.8475,-10.6518,-0.0051,-0.053,0.0925
0.1413,-0.8068,-10.7021,0.0144,-0.0602,0.0879
0.1604,-0.9697,-10.817,0.0242,-0.0629,0.0802
0.1101,-1.0558,-10.6949,0.0165,-0.11,0.0685
0.2897,-1.2139,-10.6973,-0.0314,-0.1545,0.0573
0.3687,-1.3312,-10.5752,-0.0757,-0.1751,0.056
0.3208,-1.2306,-10.2568,-0.1106,-0.1895,0.0498
0.091,-1.1157,-10.1131,-0.1428,-0.1988,0.0272
-0.0646,-1.0606,-10.094,-0.1476,-0.198,0.0112
-0.1413,-0.9673,-10.0389,-0.13,-0.1641,0.0
-0.2155,-0.8691,-9.9,-0.1047,-0.1002,0.0021
-0.2682,-0.8811,-9.7037,-0.0895,-0.0504,-0.0037
-0.3424,-0.8715,-9.6845,-0.0717,0.0035,-0.0224
-0.5483,-0.8212,-9.9096,-0.0378,0.048,-0.024
-0.6608,-0.7302,-10.3142,-0.0179,0.0922,-0.0072
-0.5914,-0.6752,-10.6063,-0.0104,0.1508,0.0165
-0.34,-0.7183,-10.5345,-0.0205,0.1998,0.0272
-0.2729,-0.8308,-10.4387,-0.0234,0.2126,0.0216
-0.1125,-0.917,-10.5201,-0.0221,0.1791,0.0141
0.1484,-1.0678,-10.5704,-0.0328,0.1186,0.0179
0.3783,-1.1923,-10.6279,-0.0456,0.0541,0.0349
0.5674,-1.1947,-10.5632,-0.0669,-0.0043,0.0314
0.4693,-1.0534,-10.4722,-0.0858,-0.0429,0.0107
0.2083,-0.8236,-10.3238,-0.0946,-0.1348,-0.0139
0.2849,-0.9337,-10.003,-0.0978,-0.2225,-0.0187
0.3519,-0.9266,-9.7013,-0.0658,-0.2497,-0.0317
0.0718,-0.7829,-9.7085,-0.033,-0.2337,-0.0408
-0.158,-0.6201,-9.8641,0.0045,-0.2321,-0.049
-0.4238,-0.5339,-10.1299,0.0264,-0.2273,-0.0341
-0.5626,-0.5459,-10.2759,0.0682,-0.243,-0.0069
-0.5387,-0.7111,-10.5919,0.0917,-0.2478,0.0123
-0.3735,-0.838,-11.0325,0.1026,-0.2467,0.0211
0.2059,-0.9864,-11.1761,0.0941,-0.2465,0.0549
0.3472,-1.3001,-10.6997,0.0357,-0.2777,0.0445
0.7542,-1.573,-10.3142,-0.0448,-0.3341,-0.0155
0.6608,-1.6185,-10.2735,-0.1202,-0.3611,-0.0821
-0.0024,-1.2953,-10.5105,-0.1969,-0.4349,-0.1196
-0.3591,-1.0247,-10.7955,-0.2502,-0.5508,-0.1247
-0.5315,-0.8428,-10.7428,-0.271,-0.6054,-0.1066
-0.5267,-0.747,-10.3669,-0.2691,-0.5793,-0.0943
-0.4381,-0.7135,-10.1682,-0.267,-0.5065,-0.1159
-0.4884,-0.8308,-10.2185,-0.2515,-0.4186,-0.1394
-0.9361,-0.7278,-9.9072,-0.239,-0.3496,-0.1375
-1.1325,-0.5243,-10.75,-0.2148,-0.2761,-0.1743
-1.3623,-0.3496,-11.5927,-0.1916,-0.1865,-0.1402
-1.3599,-0.431,-11.5113,-0.1985,-0.1407,-0.0949
-1.1779,-0.5722,-11.0205,-0.2694,-0.0957,-0.0871
-0.8763,-0.8882,-10.7691,-0.3579,-0.0658,-0.0871
-0.2227,-0.9673,-10.5991,-0.425,-0.0314,-0.0882
0.0048,-0.7997,-10.6039,-0.4386,-0.0131,-0.0991
-0.261,-0.6081,-10.6949,-0.4471,-0.04,-0.1172
-0.4381,-0.4525,-10.7332,-0.4708,-0.1037,-0.1239
-0.6081,-0.3136,-10.4986,-0.4831,-0.146,-0.11
-0.9361,-0.1221,-10.1873,-0.469,-0.1703,-0.089
-0.7135,-0.1532,-10.149,-0.4306,-0.1599,-0.0797
-0.1844,-0.4214,-9.8282,-0.3725,-0.0674,-0.0586
-0.2538,-0.4238,-9.3182,-0.3166,-0.0016,-0.0584
-0.407,-0.4693,-9.1435,-0.2859,0.0104,-0.0621
-0.2442,-0.4262,-9.0812,-0.2278,0.0509,-0.0432
-0.158,-0.3663,-8.7987,-0.1407,0.1548,-0.012
-0.2418,-0.2562,-8.26,-0.0245,0.2555,0.04
-0.4405,0.0263,-7.7045,0.0791,0.2553,0.0424
-0.5746,0.3615,-8.2911,0.1697,0.1913,0.0389
-0.4094,0.3926,-9.3781,0.2984,0.1919,0.0362
-0.2155,0.1796,-10.1442,0.4237,0.1466,0.0616
-0.1125,-0.0934,-10.2448,0.4708,0.0568,0.0626
-0.0575,-0.3926,-10.4651,0.4828,-0.0514,0.0394
0.0215,-0.4621,-10.8816,0.4898,-0.1415,0.0325
-0.2203,-0.4214,-11.1163,0.4863,-0.2028,0.0344
-0.51,-0.4214,-10.9726,0.4695,-0.2377,0.0107
-0.7805,-0.3807,-10.75,0.4615,-0.2422,-0.0216
-0.8787,-0.4621,-10.58,0.4815,-0.1988,-0.0213
-0.7949,-0.5052,-10.5369,0.506,-0.1066,0.0293
-1.2234,-0.9481,-10.0796,0.4676,0.0091,0.0834
-1.2043,-0.735,-10.0461,0.4533,0.0839,0.0642
-0.9649,-0.6871,-10.3717,0.4565,0.23,0.0653
-1.0774,-0.5291,-10.7548,0.4748,0.3421,0.0709
-0.972,-0.5938,-10.7117,0.485,0.4295,0.0741
-0.6871,-0.6967,-10.6614,0.5068,0.4946,0.0751
-0.4836,-0.7542,-10.5824,0.5289,0.57,0.0701
-0.51,-0.8787,-10.9535,0.5545,0.6214,0.0496
-0.4669,-0.929,-11.6526,0.5644,0.6347,0.0538
-0.261,-1.221,-11.6813,0.5247,0.6379,0.0698
-0.2298,-1.3288,-10.9223,0.4567,0.6203,0.0751
-0.2562,-1.3815,-10.3406,0.3861,0.5558,0.0693
-0.0622,-1.3048,-10.5129,0.3565,0.5148,0.0536
0.0958,-1.1899,-10.8386,0.3696,0.5335,0.052
0.2274,-1.2019,-10.9607,0.3837,0.5217,0.0538
0.3519,-1.2929,-10.4627,0.3856,0.4914,0.0426
0.3184,-1.2641,-10.4483,0.3965,0.4218,0.0157
0.3017,-1.324,-11.078,0.4189,0.3664,-0.033
0.2849,-1.5251,-11.4323,0.4093,0.2976,-0.073
0.0982,-1.7071,-11.1833,0.3424,0.2188,-0.0911
0.1125,-1.8675,-10.5034,0.2302,0.1338,-0.0871
0.1413,-1.8531,-10.058,0.1495,0.1071,-0.0594
0.577,-1.7597,-10.1179,0.1002,0.1631,-0.0472
0.4118,-1.3479,-9.8067,0.1255,0.4181,-0.0152
-1.0127,-0.5962,-9.414,0.1759,0.6219,-0.057
0.0814,-0.8428,-9.7252,0.1953,0.7376,-0.1767
1.6281,-1.7526,-10.1347,0.2726,0.9936,-0.0602
2.2577,-2.7366,-9.3829,0.234,0.9899,0.0594
2.8611,-3.2106,-9.1075,0.0354,0.6318,-0.0386
2.7509,-2.6025,-10.1275,-0.1817,0.1703,-0.1378
1.8555,-1.4222,-10.6853,-0.2358,-0.1943,-0.1588
0.4166,0.1772,-12.0261,-0.0847,-0.3952,-0.1647
-1.4844,1.3647,-13.7858,0.0989,-0.4263,-0.1998
-2.8467,2.2505,-16.4314,0.2774,-0.485,-0.178
-4.4915,0.996,-13.477,0.1833,-0.8308,-0.1396
-1.3719,-2.138,-11.236,0.0858,-0.9427,-0.413
-3.0358,-2.1332,-12.05,0.0482,-0.7296,-0.6579
-3.6081,-1.47,-11.1139,-0.2225,-1.3355,-0.3949
-5.6838,0.565,-13.6829,0.045,-1.4064,0.0008
-7.6902,1.9944,-14.4155,0.6773,-0.773,0.238
-6.1818,-1.0654,-11.6143,0.7751,0.5545,0.1966
-2.6743,-5.0925,-8.9615,0.4655,1.9057,0.1005
0.6249,-5.8658,-6.1866,0.0975,2.416,0.0293
2.6552,-4.561,-5.0039,-0.1777,2.2082,0.0783
3.3447,-1.9058,-6.1866,-0.1996,1.4432,0.1452
3.3184,0.3328,-7.5178,0.0264,0.8319,0.11
1.3001,0.0479,-7.7524,0.1735,0.647,0.0218
0.5962,-0.9577,-7.7788,0.2201,0.7653,-0.0258
0.5794,-2.375,-8.0182,0.1607,1.0643,0.0413
1.6305,-3.1867,-8.6838,-0.016,1.246,0.1625
3.0215,-2.5067,-9.1267,-0.1362,1.1586,0.2172
3.3758,-1.1157,-9.6606,-0.125,0.8823,0.2076
3.1699,-0.2705,-9.9862,-0.0266,0.4991,0.1628
2.6408,-0.3376,-10.2855,0.0645,0.1537,0.141
1.8842,-0.8882,-10.4507,0.0735,-0.0853,0.1506
1.2019,-1.2043,-10.7476,0.0051,-0.2318,0.1609
0.565,-1.0104,-11.0468,-0.0767,-0.336,0.1444
0.3567,-0.6632,-11.133,-0.101,-0.4394,0.1287
0.1748,-0.6057,-10.9463,-0.1087,-0.5167,0.1194
0.3974,-0.6393,-10.4722,-0.0999,-0.5777,0.0901
0.6728,-0.8547,-10.0006,-0.0853,-0.5369,0.0581
0.7877,-1.1325,-9.572,-0.0781,-0.4836,0.052
1.0127,-1.3455,-9.414,-0.0581,-0.3746,0.0568
1.245,-1.4341,-9.3206,-0.0338,-0.2817,0.0576
1.336,-1.4892,-9.3589,-0.0218,-0.1966,0.0594
1.4341,-1.3216,-9.3901,-0.0123,-0.1362,0.0442
1.221,-1.2905,-9.5936,-0.0117,-0.0791,0.0317
1.2258,-1.2953,-9.6295,-0.0101,-0.041,0.0109
1.1444,-1.4054,-9.8282,-0.012,0.0125,0.0128
1.0487,-1.4461,-10.137,-0.0171,0.0187,0.0272
1.075,-1.3719,-10.2328,-0.0184,-0.0325,0.0325
1.0056,-1.2522,-10.4363,-0.024,-0.1239,0.0349
0.8978,-1.2139,-10.5153,-0.0288,-0.2342,0.0322
0.5866,-1.1372,-10.6853,-0.0312,-0.3413,0.0147
0.2083,-1.0678,-10.7691,-0.0352,-0.405,-0.0043
-0.1413,-0.9984,-10.8098,-0.0408,-0.4263,-0.0013
-0.3376,-0.9074,-10.9223,-0.0338,-0.3906,0.0187
-0.419,-0.9385,-10.9367,-0.0338,-0.3376,0.032
-0.3472,-1.0056,-10.9008,-0.0381,-0.2587,0.029
-0.3352,-1.0415,-10.9487,-0.0552,-0.2105,0.0362
-0.0718,-0.9625,-10.8553,-0.0544,-0.1732,0.0402
0.0838,-1.0151,-10.6973,-0.0584,-0.1314,0.0461
0.2274,-1.0702,-10.6279,-0.0616,-0.1127,0.0429
0.3041,-1.1875,-10.4555,-0.0666,-0.0895,0.0394
0.5219,-1.2594,-10.4651,-0.0738,-0.101,0.0432
0.6081,-1.2258,-10.3597,-0.0839,-0.1082,0.0482
0.5243,-1.2163,-10.4052,-0.0909,-0.1242,0.0405
0.5531,-1.1708,-10.4315,-0.0919,-0.1495,0.0365
0.4525,-1.1612,-10.3549,-0.0938,-0.1799,0.0386
0.3903,-1.1229,-10.3932,-0.0999,-0.2065,0.0392
0.3304,-1.1564,-10.4579,-0.1077,-0.2348,0.0368
0.2658,-1.1085,-10.4651,-0.1018,-0.2497,0.0421
0.1484,-1.0199,-10.4603,-0.0914,-0.2531,0.0482
0.1125,-1.0295,-10.4794,-0.0754,-0.2366,0.0525
0.1053,-1.0558,-10.5369,-0.061,-0.2132,0.0541
0.0934,-0.9984,-10.5321,-0.0376,-0.1895,0.064
0.0455,-1.0487,-10.568,-0.0211,-0.1615,0.0655
-0.0192,-1.0008,-10.5249,-0.0037,-0.1308,0.0618
-0.067,-1.0487,-10.635,0.0152,-0.1074,0.0506
-0.0575,-1.0151,-10.7284,0.029,-0.0813,0.0314
-0.0934,-1.0439,-10.75,0.0322,-0.0549,0.0218
-0.0646,-1.075,-10.7141,0.036,-0.0349,0.0125
0.1006,-1.1372,-10.7763,0.0349,-0.02,0.0101
0.2155,-1.1564,-10.7548,0.0322,-0.0336,0.0083
0.261,-1.1684,-10.6781,0.0232,-0.0679,0.0056
0.2993,-1.1013,-10.7835,0.0157,-0.1362,-0.0029
0.1149,-1.1013,-10.6829,0.0013,-0.1956,-0.0107
0.0407,-1.063,-10.5967,-0.0091,-0.2529,-0.0203
-0.0192,-1.0271,-10.6087,-0.0205,-0.3118,-0.0203
-0.0886,-1.1133,-10.5129,-0.0293,-0.356,-0.0152
-0.1724,-1.1205,-10.3645,-0.0346,-0.3709,-0.016
-0.2083,-1.1349,-10.4339,-0.0309,-0.3749,-0.0053
-0.17,-1.1205,-10.3501,-0.0221,-0.3533,0.0117
-0.0862,-1.1588,-10.3142,-0.0125,-0.3027,0.0229
0.0311,-1.2402,-10.1849,-0.0064,-0.2435,0.0288
0.1724,-1.2115,-10.0796,0.0019,-0.1993,0.0301
0.2155,-1.233,-10.0509,0.012,-0.182,0.0341
0.1053,-1.2115,-10.1179,0.0261,-0.1708,0.0354
-0.0335,-1.1013,-10.2185,0.0365,-0.1593,0.0309
-0.0383,-1.087,-10.3118,0.0384,-0.1354,0.0261
-0.1413,-1.1181,-10.4244,0.0402,-0.1172,0.0234
-0.1748,-1.0654,-10.5058,0.0349,-0.1279,0.0136
-0.1556,-1.0487,-10.5153,0.0341,-0.1423,0.0069
-0.1987,-0.9864,-10.5201,0.036,-0.1705,-0.0056
-0.2586,-0.9409,-10.6207,0.0338,-0.1868,-0.0192
-0.4429,-0.8715,-10.6949,0.0346,-0.2076,-0.0322
-0.5387,-0.8523,-10.5943,0.0381,-0.2137,-0.0432
-0.5243,-0.9242,-10.4914,0.0346,-0.1977,-0.0496
-0.3807,-1.0032,-10.4291,0.0282,-0.1761,-0.0568
-0.2442,-1.0487,-10.331,0.0211,-0.1673,-0.0661
-0.1389,-1.0534,-10.3238,0.0117,-0.1879,-0.0717
0.0359,-1.0295,-10.2663,0.0056,-0.2473,-0.065
0.091,-1.0534,-10.1299,-0.0067,-0.3227,-0.0562
0.0886,-1.0965,-9.9623,-0.0125,-0.4026,-0.0605
0.0311,-1.1085,-9.8833,-0.0128,-0.4711,-0.0706
-0.0168,-1.0774,-9.8426,-0.0165,-0.5223,-0.0845
-0.2227,-1.1492,-9.9216,-0.0248,-0.5596,-0.0842
-0.3184,-1.1301,-9.9719,-0.0269,-0.5748,-0.0727
-0.3879,-1.154,-10.1706,-0.032,-0.5524,-0.052
-0.4621,-1.154,-10.2615,-0.0237,-0.5145,-0.0413
-0.6297,-1.0942,-10.3597,-0.0131,-0.4692,-0.0373
-0.7183,-1.0678,-10.4411,-0.0061,-0.412,-0.0325
-0.7733,-0.972,-10.5752,0.012,-0.3309,-0.0266
-0.8236,-1.0463,-10.5129,0.0282,-0.2156,-0.0099
-0.6895,-1.1085,-10.4387,0.0384,-0.1037,-0.0013
-0.6393,-1.1325,-10.2041,0.0538,0.0093,-0.0147
-0.5124,-1.1301,-10.0221,0.057,0.065,-0.0258
-0.1987,-1.0702,-9.8952,0.0576,0.1013,-0.0344
-0.0551,-1.0678,-9.809,0.0592,0.1311,-0.036
-0.1173,-1.1372,-9.8952,0.057,0.1122,-0.0378
-0.1891,-1.1444,-9.9695,0.0453,0.0757,-0.0458
-0.1891,-1.1947,-10.0796,0.0333,0.0525,-0.0629
-0.0862,-1.2665,-10.2376,0.0069,0.0472,-0.0578
-0.0048,-1.3288,-10.252,-0.0261,0.0514,-0.0477
-0.1197,-1.2689,-10.3717,-0.037,0.0203,-0.0512
-0.2203,-1.2067,-10.4986,-0.0434,-0.028,-0.0568
-0.1389,-1.1181,-10.489,-0.0522,-0.0813,-0.0509
-0.2011,-1.0463,-10.4794,-0.0429,-0.1047,-0.048
-0.5363,-1.0343,-10.4818,-0.0341,-0.1319,-0.0544
-0.5794,-0.984,-10.6374,-0.0314,-0.1593,-0.0552
-0.2346,-1.1372,-10.6255,-0.0301,-0.15,-0.0466
0.0599,-1.3144,-10.5896,-0.0248,-0.1106,-0.0093
0.0694,-1.3527,-10.6518,-0.0237,-0.1015,0.0077
0.0311,-1.2641,-10.6183,-0.0197,-0.1404,-0.0011
0.2538,-1.2857,-10.4483,-0.0349,-0.2006,-0.0075
0.3639,-1.312,-10.2735,-0.0456,-0.2134,0.0072
0.261,-1.2809,-9.8976,-0.0498,-0.2065,0.028
0.0599,-1.1564,-9.5026,-0.0461,-0.1996,0.0157
-0.2035,-1.0487,-9.3015,-0.041,-0.1775,-0.0027
-0.3041,-0.9505,-9.3781,-0.0394,-0.1511,-0.0067
-0.4908,-0.9457,-9.4499,-0.0336,-0.0863,-0.0005
-0.7638,-0.8643,-9.8186,-0.0187,-0.0533,-0.0101
-0.7925,-0.8978,-10.1778,0.0051,-0.0173,-0.0306
-0.5914,-1.0534,-10.173,0.0061,0.0469,-0.0357
-0.3089,-1.154,-10.2448,0.0037,0.1346,-0.0192
-0.3567,-1.233,-10.6877,0.0064,0.1964,0.0048
-0.3448,-0.9098,-10.8386,0.0466,0.1865,-0.0112
-0.3208,-0.8045,-10.8194,0.0682,0.1689,-0.0357
-0.3519,-0.9098,-10.7715,0.0738,0.1346,-0.0533
-0.2179,-1.0295,-10.7859,0.0655,0.0951,-0.0562
-0.1652,-1.1492,-10.8649,0.0616,0.0389,-0.0538
-0.1197,-1.1085,-10.9367,0.0626,-0.0314,-0.0477
-0.0144,-1.1564,-10.9894,0.0362,-0.1037,-0.0389
-0.1389,-1.1756,-10.9798,0.0043,-0.1764,-0.0309
-0.1269,-1.1492,-10.9439,-0.0171,-0.2254,-0.0362
-0.1652,-1.087,-10.6159,-0.0306,-0.2417,-0.0373
-0.3424,-0.9337,-10.4627,-0.0184,-0.2406,-0.0408
-0.6393,-0.8978,-10.5584,0.0048,-0.2294,-0.0474
-0.8475,-0.8667,-10.6398,-0.0003,-0.2148,-0.0541
-0.6512,-1.1612,-10.2687,-0.0333,-0.1423,-0.0576
-0.498,-1.2809,-9.9503,-0.0682,-0.0392,-0.056
-0.3711,-1.2785,-10.0509,-0.0767,0.0549,-0.0525
-0.4621,-1.154,-10.3238,-0.0616,0.121,-0.0453
-0.4956,-1.0606,-10.5105,-0.0306,0.1234,-0.0461
-0.5124,-1.0295,-10.6566,-0.0163,0.1228,-0.0549
-0.5938,-1.0678,-10.5058,-0.0208,0.1335,-0.0554
-0.5004,-1.063,-10.5512,-0.025,0.1455,-0.0405
-0.3783,-0.9385,-10.5129,-0.0203,0.1753,-0.0125
-0.2658,-0.8164,-10.6111,-0.0072,0.1985,0.0096
-0.158,-0.8356,-10.5632,-0.0029,0.1817,0.0179
0.067,-0.8882,-10.3813,-0.0107,0.1431,0.0131
0.1724,-0.9457,-10.2161,-0.0184,0.0815,0.0133
0.1963,-1.1013,-10.0365,-0.0317,0.0237,0.0136
0.2011,-1.1779,-9.9264,-0.0477,-0.0277,0.012
-0.0239,-1.1133,-9.9335,-0.0541,-0.0799,0.0101
-0.1365,-1.0008,-10.1825,-0.0453,-0.1143,0.0147
-0.316,-0.8092,-10.2208,-0.0245,-0.11,0.0131
-0.4118,-0.814,-10.2783,-0.0061,-0.0871,0.0112
-0.4884,-0.9098,-10.1634,0.0083,-0.025,0.0101
-0.5746,-0.9697,-10.137,0.0264,0.041,0.0205
-0.5148,-1.0343,-10.3406,0.0522,0.1018,0.0234
-0.4094,-0.9577,-10.58,0.0618,0.1665,0.0298
-0.4022,-0.9385,-10.5872,0.0552,0.2233,0.0442
-0.2274,-0.9744,-10.5105,0.0456,0.2377,0.0589
-0.0527,-1.0343,-10.4315,0.0461,0.2419,0.0562
0.0311,-1.0606,-10.4531,0.0493,0.214,0.0408
0.0575,-1.0774,-10.5225,0.04,0.1612,0.0304
0.0287,-1.0774,-10.2472,0.0261,0.093,0.0328
0.0168,-0.9768,-9.991,0.0205,0.0461,0.028
-0.0192,-0.9433,-9.8474,0.0266,0.012,0.0192
-0.1963,-0.9218,-9.9144,0.0528,-0.0184,0.0136
-0.2753,-0.9792,-9.9623,0.0879,-0.0426,0.0123
-0.3136,-0.9457,-10.2208,0.1194,-0.0282,0.0195
-0.261,-0.9816,-10.5417,0.1418,0.0208,0.0397
-0.2945,-1.0247,-10.5297,0.1391,0.0658,0.0506
-0.1963,-1.1588,-10.3932,0.1055,0.0719,0.0482
-0.0239,-1.3001,-10.3549,0.0786,0.0669,0.0394
0.067,-1.2761,-10.3837,0.0669,0.057,0.0341
0.0742,-1.233,-10.5273,0.0424,0.0485,0.0418
0.1413,-1.2354,-10.3837,0.0136,0.0429,0.0482
0.146,-1.233,-10.319,-0.0029,0.0325,0.0442
0.0311,-1.166,-10.4531,-0.0093,-0.0091,0.0232
-0.1867,-1.0367,-10.4914,-0.0245,-0.0562,0.0008
-0.3041,-0.9697,-10.4291,-0.0376,-0.0855,0.0005
-0.3376,-1.008,-10.3334,-0.0472,-0.0671,0.0205
-0.4094,-0.9912,-10.3789,-0.0618,-0.0184,0.0312
-0.4812,-0.9553,-10.3238,-0.0778,0.0085,0.0346
-0.3519,-0.9984,-10.2113,-0.0967,0.0125,0.0269
-0.2011,-1.0295,-10.2304,-0.1053,0.0317,0.0256
-0.2035,-1.0056,-10.2017,-0.0959,0.0416,0.0416
-0.1867,-0.917,-10.1442,-0.0973,0.0341,0.0584
-0.1173,-0.8787,-10.058,-0.1013,0.0296,0.0576
-0.17,-0.9146,-10.2328,-0.0914,0.0314,0.0637
-0.3112,-0.9361,-10.5345,-0.0847,-0.0067,0.069
-0.0192,-1.1612,-10.6326,-0.1018,-0.0546,0.0855
0.2705,-1.2953,-10.6279,-0.1324,-0.0805,0.1071
0.3855,-1.2258,-10.4962,-0.1807,-0.1375,0.1037
0.3711,-1.0942,-9.9742,-0.2382,-0.2022,0.0834
0.2586,-1.0056,-9.7205,-0.2643,-0.2641,0.0592
0.0,-1.0223,-9.8114,-0.247,-0.3054,0.0442
-0.079,-0.9744,-10.0173,-0.2044,-0.3208,0.0536
0.0551,-1.1013,-9.7109,-0.1753,-0.3008,0.0781
0.0527,-1.0942,-9.5648,-0.1596,-0.2521,0.0749
-0.237,-0.9337,-9.8019,-0.1476,-0.2332,0.0389
-0.4525,-0.7398,-10.2592,-0.1271,-0.238,0.016
-0.5578,-0.6297,-10.3573,-0.1082,-0.2425,0.032
-0.4884,-0.6967,-10.5177,-0.1029,-0.2377,0.0408
-0.5387,-0.735,-10.4148,-0.1228,-0.2297,0.0402
-0.4262,-0.8739,-10.3046,-0.1572,-0.2625,0.0253
-0.2083,-0.9744,-10.3501,-0.1631,-0.2809,0.0003
-0.091,-1.0439,-10.3477,-0.1713,-0.2771,-0.0083
0.0934,-1.1971,-10.1634,-0.1996,-0.2891,-0.0037
0.4286,-1.4222,-10.0461,-0.2377,-0.3283,-0.0274
0.5818,-1.5921,-9.9575,-0.2654,-0.3619,-0.0821
0.7111,-1.5467,-9.9742,-0.2539,-0.4202,-0.105
0.644,-1.4485,-9.6486,-0.2579,-0.4527,-0.1207
-0.0192,-0.9673,-9.2273,-0.2449,-0.4687,-0.1561
-0.8164,-0.2658,-9.821,-0.2212,-0.47,-0.2222
-1.3791,0.1604,-10.7021,-0.1311,-0.4658,-0.2108
-1.233,-0.0072,-10.6398,-0.0131,-0.4362,-0.1569
-1.0439,-0.1772,-10.5369,0.0741,-0.3405,-0.1711
-1.5083,-0.1101,-11.0828,0.1018,-0.2409,-0.1996
-1.7095,-0.2083,-11.8465,0.0933,-0.2206,-0.2009
-1.7549,-0.1915,-12.7036,0.0989,-0.2004,-0.1474
-1.2881,-0.6225,-12.5983,0.0317,-0.1564,-0.0472
-0.5626,-1.1875,-11.8154,-0.0735,-0.1444,-0.0378
-0.2394,-1.494,-11.4946,-0.2033,-0.1476,-0.0592
0.0982,-1.652,-11.0756,-0.3107,-0.1609,-0.069
0.0383,-1.6185,-10.7476,-0.3675,-0.1508,-0.0733
-0.3041,-1.1636,-10.1131,-0.421,-0.1367,-0.0485
-1.0056,-0.6656,-9.9359,-0.4199,-0.1092,-0.0533
-1.1588,-0.3232,-9.9335,-0.396,-0.0986,-0.0277
-1.0965,-0.1508,-10.2855,-0.3576,-0.0394,0.0093
-1.0319,-0.1939,-10.7883,-0.3467,-0.0128,0.0392
-0.7374,-0.3639,-10.9343,-0.3667,-0.0514,0.0498
0.1125,-0.6632,-10.9511,-0.3752,-0.069,0.0456
0.3208,-0.9337,-10.1466,-0.3533,-0.0453,0.048
-0.4621,-0.735,-9.1123,-0.328,-0.0717,0.0469
-0.984,-0.1413,-9.1435,-0.2766,-0.1103,0.0485
-1.1516,0.158,-9.8162,-0.162,-0.0445,0.0882
-0.7949,-0.0503,-9.9072,-0.0533,0.0269,0.1463
-0.3448,-0.4357,-9.0956,-0.0128,0.0765,0.1711
-0.1197,-0.4693,-8.4276,0.0269,0.1047,0.1471
-0.2897,-0.2227,-8.5114,0.1327,0.0861,0.137
-0.3903,-0.0192,-8.9735,0.2875,0.044,0.1537
-0.4262,0.0239,-9.3518,0.417,0.0093,0.1636
-0.3807,-0.1915,-9.9766,0.4791,-0.0488,0.1649
-0.2729,-0.3519,-11.0373,0.4954,-0.1183,0.1535
-0.2298,-0.5914,-12.2056,0.4626,-0.1913,0.1316
-0.3112,-0.644,-12.0476,0.3741,-0.2617,0.1127
-0.6369,-0.7111,-10.6734,0.2635,-0.3179,0.0722
-0.9864,-0.4214,-9.4523,0.231,-0.3309,0.0346
-1.3671,-0.091,-9.3158,0.3064,-0.2667,0.0234
-1.4676,0.0239,-9.8306,0.425,-0.1697,0.0437
-1.4653,-0.1006,-10.2927,0.5356,-0.0504,0.0626
-1.3527,-0.4094,-10.2615,0.5812,0.061,0.0786
-1.142,-0.6584,-9.9144,0.582,0.1716,0.0914
-0.9026,-0.7781,-9.6391,0.5772,0.2675,0.0938
-0.7111,-0.7207,-9.6199,0.5742,0.3853,0.1319
-1.1516,-1.1085,-9.6941,0.4815,0.4858,0.1692
-0.8906,-0.6129,-9.7013,0.5079,0.465,0.1085
-0.6488,-0.5339,-10.0533,0.5561,0.5737,0.0986
-0.5315,-0.4884,-10.5082,0.6281,0.5836,0.1108
-0.2945,-0.7853,-11.0109,0.659,0.6049,0.1018
-0.3232,-0.9266,-11.4084,0.6726,0.6001,0.0653
-0.316,-1.1109,-11.6526,0.6499,0.4852,0.0432
-0.3759,-1.2546,-11.6095,0.5902,0.3512,0.0253
-0.4908,-1.3958,-11.4515,0.5124,0.214,0.0
-0.6105,-1.4006,-11.3868,0.4351,0.1092,-0.0336
-0.6177,-1.3503,-11.2527,0.3624,0.0525,-0.0506
-0.589,-1.2378,-10.8697,0.2843,0.0213,-0.0416
-0.4238,-1.1277,-10.7619,0.2345,0.0093,-0.0362
-0.3903,-1.1516,-10.6494,0.2385,0.0072,-0.0517
-0.5483,-1.2258,-10.7476,0.2611,-0.0083,-0.0978
-0.8835,-1.3599,-11.0732,0.2539,-0.0272,-0.137
-1.0606,-1.5155,-11.0516,0.2078,-0.0597,-0.1388
-0.9697,-1.6975,-10.7859,0.1322,-0.0544,-0.1092
-0.9768,-1.7214,-10.2975,0.0781,0.0512,-0.0805
-0.8475,-1.6783,-10.0604,0.0472,0.1881,-0.0632
-0.395,-1.6616,-10.2448,0.0453,0.3864,-0.0653
0.3496,-1.5682,-10.1155,0.0861,0.6408,-0.0466
-0.2873,-1.2426,-9.414,0.1601,0.8713,-0.0123
-0.6704,-0.905,-9.4284,0.1777,0.8804,-0.1031
1.1444,-1.3838,-10.0197,0.1972,0.8775,-0.1474
2.3176,-2.2386,-9.7588,0.2579,0.9446,-0.0365
2.3607,-2.885,-9.3996,0.1884,0.7887,-0.0298
2.2194,-2.9209,-9.1818,-0.0266,0.4498,-0.1676
1.7837,-2.1548,-10.2017,-0.1801,0.1396,-0.2715
1.0343,-1.0846,-10.7404,-0.1775,-0.1236,-0.2382
0.0575,-0.1125,-11.1546,-0.056,-0.2358,-0.1908
-1.3072,0.9313,-11.8657,0.0655,-0.2625,-0.2169
-1.4461,1.3455,-14.0659,0.1522,-0.2286,-0.1809
-2.557,1.1013,-14.9111,0.23,-0.299,-0.1039
-2.648,-1.7597,-10.3166,-0.0211,-0.7541,-0.3104
-1.5945,-3.0047,-12.7467,-0.0554,-0.6011,-0.728
-4.142,-0.6847,-11.2958,-0.3003,-1.1538,-0.6734
-3.9624,-0.4764,-9.4475,-0.4487,-1.6156,-0.1657
-5.0781,1.3791,-11.643,0.1689,-1.1229,0.1455
-6.2034,1.7047,-12.7084,0.7482,-0.1343,0.2904
-4.5394,-2.2386,-11.1163,0.8759,1.0259,0.2049
-1.8028,-5.8538,-8.8322,0.5081,2.0246,0.0789
1.3815,-6.0621,-6.4117,0.243,2.2585,-0.0528
3.2801,-3.9983,-6.8091,0.0336,1.9758,0.064
2.885,-2.0063,-8.1451,-0.0181,1.258,0.1439
2.7174,-0.4908,-8.5425,0.1588,0.5609,0.0589
1.3886,-0.6656,-8.6766,0.2785,0.4397,-0.0314
1.2282,-1.4676,-8.7412,0.295,0.4682,-0.0394
1.1588,-2.2601,-9.2464,0.207,0.6448,0.0568
1.7861,-2.3966,-10.1754,0.0821,0.6699,0.1428
1.9704,-1.5538,-10.6734,0.0091,0.5167,0.1484
1.9178,-0.5243,-10.8912,0.0322,0.2348,0.1268
1.1157,-0.2586,-11.1211,0.056,-0.0453,0.101
0.4453,-0.4717,-11.1785,0.0624,-0.2803,0.0842
-0.2658,-0.7757,-11.4491,0.0155,-0.4255,0.0989
-0.8667,-0.8092,-11.4299,-0.032,-0.538,0.0914
-1.0678,-0.9026,-10.829,-0.065,-0.5183,0.0813
-0.9768,-1.1253,-9.924,-0.0954,-0.4194,0.0554
-0.3041,-1.324,-9.1818,-0.1183,-0.2657,0.028
0.328,-1.5706,-8.6191,-0.1537,-0.1439,0.0282
1.1612,-1.4174,-8.6981,-0.1567,-0.1183,0.0274
1.3288,-1.1756,-8.8969,-0.1308,-0.1559,0.0216
1.1325,-0.905,-9.3039,-0.0901,-0.2121,0.0152
0.7518,-0.8356,-9.4954,-0.0381,-0.2201,0.0091
0.1915,-0.9864,-9.8186,-0.0115,-0.1572,0.0077
0.0766,-1.1684,-9.8426,0.0077,-0.0488,0.0141
0.103,-1.3599,-9.9431,0.0128,0.0911,0.0163
0.3184,-1.3743,-10.1706,0.0043,0.1796,0.0266
0.498,-1.3815,-10.3765,-0.0043,0.2081,0.0285
0.8164,-1.2522,-10.4722,-0.0136,0.1476,0.0213
0.905,-1.1971,-10.5872,-0.0181,0.0517,0.0157
0.7805,-1.1923,-10.6973,-0.0296,-0.0544,0.0131
0.6943,-1.2258,-10.7835,-0.0466,-0.158,0.0107
0.4214,-1.2761,-10.7907,-0.069,-0.2414,0.0096
0.0982,-1.2929,-10.6207,-0.1114,-0.3275,0.0128
-0.0168,-1.2977,-10.2831,-0.1468,-0.3808,0.0133
-0.1341,-1.324,-9.9311,-0.1745,-0.4074,0.0141
-0.249,-1.0151,-9.7396,-0.1564,-0.4314,0.0072
-0.419,-0.9577,-9.675,-0.1444,-0.3685,0.0037
-0.3855,-1.0391,-9.7612,-0.1332,-0.2577,-0.0051
-0.3304,-1.0702,-9.8857,-0.1061,-0.11,0.0107
0.0287,-1.1684,-9.9934,-0.0773,0.0075,0.0336
0.2705,-1.2833,-10.0772,-0.0554,0.0858,0.0368
0.5818,-1.4222,-10.0461,-0.0429,0.1172,0.0376
0.723,-1.4246,-10.1873,-0.0421,0.1058,0.0352
0.6536,-1.3791,-10.2592,-0.0373,0.073,0.0336
0.589,-1.3384,-10.4507,-0.0312,0.0373,0.037
0.4549,-1.2665,-10.635,-0.029,-0.0075,0.0381
0.3831,-1.2282,-10.7404,-0.0314,-0.0501,0.0389
0.3543,-1.1851,-10.8218,-0.0258,-0.0818,0.0389
0.328,-1.1612,-10.9008,-0.0242,-0.1146,0.0376
0.2562,-1.0965,-11.0253,-0.02,-0.1503,0.037
0.2155,-1.0726,-11.0061,-0.0179,-0.2148,0.0392
0.0431,-1.0391,-11.0277,-0.0192,-0.2904,0.0365
-0.0407,-0.9864,-10.884,-0.0234,-0.3648,0.0282
-0.182,-1.0894,-10.7093,-0.0293,-0.4013,0.0245
-0.2993,-1.1827,-10.3621,-0.0429,-0.4365,0.0269
-0.4046,-1.1803,-10.0916,-0.0653,-0.4791,0.032
-0.3687,-1.1564,-9.912,-0.0741,-0.5097,0.0237
-0.3711,-1.0726,-9.8641,-0.0632,-0.4983,0.0115
-0.5435,-1.063,-9.8976,-0.056,-0.461,0.0053
-0.589,-1.087,-9.9359,-0.0445,-0.3981,0.0011
-0.5866,-1.1468,-9.9742,-0.0312,-0.3091,0.0035
-0.4549,-1.1444,-10.0126,-0.0117,-0.2145,0.004
-0.3519,-1.1468,-10.0245,0.0008,-0.1247,0.0067
-0.1173,-1.1923,-9.8904,0.0125,-0.061,0.0109
0.0599,-1.221,-9.8593,0.0192,-0.0045,0.0208
-0.0287,-1.166,-10.0892,0.0155,0.0216,0.0224
-0.0718,-1.0582,-10.1418,0.0181,-0.0189,0.0157
-0.3807,-0.9984,-10.398,0.0309,-0.0568,0.012
-0.498,-0.9577,-10.5824,0.0274,-0.1122,0.0187
-0.6943,-0.838,-10.6829,0.0213,-0.1516,0.0152
-0.68,-0.8691,-10.9032,0.0104,-0.1972,0.0059
-0.814,-0.9984,-10.8793,-0.0288,-0.2204,0.0165
-0.723,-1.0534,-10.7955,-0.0533,-0.2222,0.0115
-0.7254,-0.9984,-10.7619,-0.0578,-0.1743,-0.0075
-0.7183,-0.9912,-10.5728,-0.0525,-0.1298,-0.008
-0.5698,-1.0175,-10.2783,-0.0405,-0.0831,-0.0024
-0.5148,-1.063,-10.2041,-0.0357,-0.024,-0.0056
-0.4932,-1.0295,-10.1778,-0.0248,0.0053,-0.0136
-0.3615,-1.0391,-10.2496,-0.0253,0.0203,-0.0149
-0.2897,-0.996,-10.3837,-0.0099,0.0192,-0.0157
-0.2634,-1.0343,-10.5512,0.0024,0.0117,-0.0213
-0.261,-1.0056,-10.6015,0.0109,-0.0048,-0.0301
-0.3783,-1.0582,-10.7308,0.0176,-0.0261,-0.0306
-0.2921,-1.0918,-10.8864,0.0184,-0.0506,-0.0312
-0.2897,-1.075,-10.9391,0.0237,-0.0703,-0.0349
-0.3256,-1.1037,-10.9559,0.0171,-0.0885,-0.0349
-0.3424,-1.0511,-10.9774,0.0197,-0.1108,-0.0341
-0.2729,-1.0582,-10.8266,0.0213,-0.1303,-0.0344
-0.1221,-1.1851,-10.6686,0.0157,-0.1316,-0.033
-0.1245,-1.2785,-10.671,0.0013,-0.1346,-0.0336
-0.1963,-1.257,-10.6398,-0.0224,-0.1527,-0.052
-0.2921,-1.1732,-10.4459,-0.0642,-0.1873,-0.0586
-0.431,-1.0391,-10.2903,-0.0954,-0.2158,-0.052
-0.4812,-0.8978,-10.0724,-0.1116,-0.2449,-0.0344
-0.4525,-0.8595,-9.924,-0.109,-0.2622,-0.0242
-0.407,-0.8954,-9.7779,-0.118,-0.2308,-0.0133
-0.5387,-0.8547,-9.6438,-0.0946,-0.1769,-0.0333
-0.5986,-0.8667,-9.4595,-0.0727,-0.1175,-0.0477
-0.5746,-1.0295,-9.5241,-0.0578,-0.0368,-0.048
-0.4884,-1.1516,-9.6774,-0.0592,0.0381,-0.0349
-0.3448,-1.2258,-9.8521,-0.0719,0.0962,-0.0139
-0.261,-1.2785,-9.9072,-0.0783,0.1332,-0.0037
-0.1652,-1.2474,-10.1251,-0.0759,0.1444,-0.0048
0.0455,-1.1396,-10.2999,-0.0568,0.1442,0.0019
0.0479,-1.1492,-10.3669,-0.0373,0.141,0.0019
0.1844,-1.1444,-10.4579,-0.0155,0.1159,-0.0067
0.3567,-1.1803,-10.4459,0.0037,0.1002,-0.0195
0.2777,-1.2402,-10.4411,0.016,0.0847,-0.0181
0.2155,-1.2139,-10.4698,0.0237,0.0309,-0.0189
0.0958,-1.1684,-10.4866,0.02,-0.0163,-0.0195
-0.0072,-1.2139,-10.4004,0.0144,-0.0719,-0.0192
-0.1484,-1.2737,-10.4794,0.0048,-0.1119,-0.0187
-0.3448,-1.1444,-10.5991,-0.0437,-0.1522,-0.0157
-0.4884,-1.3384,-10.5417,-0.0965,-0.1663,-0.0176
-0.4453,-1.3096,-10.3477,-0.1498,-0.1537,-0.0144
-0.3687,-1.2043,-10.228,-0.1897,-0.1124,0.004
-0.3591,-0.9936,-10.1418,-0.1887,-0.0618,0.0104
-0.2705,-0.9481,-10.149,-0.1953,-0.0261,0.0218
-0.1796,-0.8859,-10.0054,-0.1684,0.0266,0.0059
-0.2011,-0.8475,-10.1514,-0.1223,0.032,-0.012
-0.3089,-0.7973,-10.2232,-0.0757,0.0346,-0.0221
-0.5195,-0.8499,-10.149,-0.0501,0.0256,-0.0229
-0.7135,-0.9385,-10.2328,-0.0336,0.0139,-0.0248
-0.6464,-0.9673,-10.3741,-0.0083,0.033,-0.0211
-0.3879,-1.0439,-10.4651,0.0234,0.1031,-0.0077
-0.3136,-1.1037,-10.4459,0.0608,0.178,0.0165
-0.2753,-1.0774,-10.4387,0.0837,0.2348,0.0131
-0.1101,-1.0319,-10.5273,0.0965,0.2822,-0.0149
-0.2298,-1.0463,-10.4651,0.0751,0.271,-0.0232
-0.103,-1.1803,-10.489,0.0413,0.2049,-0.0027
-0.0527,-1.2067,-10.5393,0.0131,0.1346,0.0176
-0.0407,-1.0606,-10.5153,-0.0171,0.0629,0.0293
0.0311,-0.9984,-10.3549,-0.0349,0.0096,0.0394
0.0814,-0.8643,-10.2113,-0.0165,-0.0213,0.0533
0.1149,-0.8954,-10.2663,0.0229,-0.0197,0.0605
0.0,-0.8859,-10.4675,0.0461,0.0085,0.0632
-0.1365,-0.9936,-10.8505,0.0448,0.0333,0.0621
-0.3089,-1.0415,-10.9654,0.045,0.0386,0.045
-0.146,-1.0918,-10.8026,0.057,0.0274,0.0405
-0.2179,-1.0367,-10.5225,0.0677,0.0565,0.0197
-0.1197,-1.0199,-10.252,0.0717,0.0786,0.0013
-0.1125,-1.0558,-10.2903,0.0879,0.109,-0.0051
-0.1413,-1.0511,-10.4244,0.1103,0.101,0.0037
-0.2083,-1.0558,-10.4603,0.1196,0.0799,0.0123
-0.3496,-1.0295,-10.386,0.1322,0.0461,0.0093
-0.5171,-1.0032,-10.4267,0.13,0.0248,-0.0011
-0.6608,-1.1013,-10.5704,0.1082,0.0165,0.0096
-0.5171,-1.1492,-10.8002,0.0925,0.0362,0.0352
-0.3136,-1.0247,-11.0875,0.1037,0.0975,0.0584
-0.1293,-0.9936,-11.0684,0.1151,0.1346,0.0757
0.0144,-0.9649,-10.9822,0.1386,0.1476,0.0509
0.2131,-0.9888,-10.8697,0.1548,0.1319,0.0179
0.3208,-1.1061,-10.6638,0.1527,0.1061,0.0077
0.3591,-1.3024,-10.4076,0.129,0.0514,-0.0077
0.2729,-1.3982,-10.4651,0.0911,0.0053,-0.0221
0.0934,-1.3575,-10.5728,0.0469,-0.0437,-0.0245
-0.1365,-1.3001,-10.5441,-0.0021,-0.0773,-0.0184
-0.4788,-1.2498,-10.5129,-0.0432,-0.0783,-0.0184
-0.7039,-1.0989,-10.7452,-0.0653,-0.0589,-0.0344
-0.7901,-0.9242,-11.0684,-0.0818,-0.037,-0.029
-0.5315,-0.9577,-11.0109,-0.1018,-0.0069,0.0203
-0.2107,-1.075,-10.6566,-0.1212,0.0408,0.0658
-0.0527,-1.1827,-10.2903,-0.1364,0.0645,0.0626
0.0551,-1.1708,-10.0628,-0.1535,0.0608,0.0248
-0.0455,-1.1061,-10.0963,-0.1628,0.045,-0.0157
-0.2227,-1.0846,-10.2376,-0.1596,0.032,-0.0211
-0.3807,-1.0319,-10.2879,-0.1567,0.044,0.004
-0.3687,-0.9457,-10.2424,-0.1652,0.0773,0.0338
-0.158,-0.9625,-10.094,-0.1657,0.118,0.048
0.2179,-1.0151,-9.9072,-0.1548,0.1529,0.056
0.3879,-1.0894,-9.845,-0.1447,0.1628,0.0453
0.5291,-1.1779,-9.8521,-0.1308,0.1359,0.0288
0.5052,-1.142,-9.8809,-0.1356,0.073,0.0088
0.2274,-1.0439,-9.7803,-0.1418,-0.0083,-0.0043
-0.0024,-0.9337,-9.7827,-0.1412,-0.0789,-0.0136
-0.1963,-0.8787,-9.9431,-0.1188,-0.1023,-0.0152
-0.3974,-0.8356,-10.0509,-0.0922,-0.0781,-0.0112
-0.4549,-0.8021,-10.1706,-0.0735,-0.0328,-0.0048
-0.4573,-0.8954,-10.2975,-0.0701,0.0067,-0.0016
-0.3735,-1.0247,-10.4531,-0.0762,0.0298,-0.0027
-0.1077,-1.1037,-10.3118,-0.0869,0.036,0.0016
-0.0311,-1.0846,-10.1873,-0.1135,0.0208,0.0072
-0.0431,-1.1277,-10.1203,-0.1452,-0.0211,-0.0051
-0.0958,-1.1564,-10.0748,-0.1601,-0.0666,-0.0336
-0.0838,-1.1085,-10.1562,-0.1537,-0.0775,-0.0525
-0.1508,-0.9649,-10.3286,-0.1519,-0.0671,-0.0448
-0.1748,-0.8308,-10.2304,-0.1708,-0.0493,-0.024
-0.0934,-0.826,-9.9407,-0.1793,-0.0389,-0.0091
-0.0718,-0.7877,-9.7827,-0.1612,-0.0365,-0.0171
-0.1341,-0.6752,-9.8737,-0.1279,-0.0594,-0.0229
-0.0982,-0.6536,-10.0533,-0.097,-0.089,-0.0117
-0.0551,-0.7542,-9.9695,-0.0671,-0.1071,-0.0133
-0.0814,-0.7422,-10.0916,-0.0514,-0.1308,-0.0221
-0.2131,-0.6656,-10.4291,-0.0645,-0.1567,-0.0123
-0.2466,-0.7183,-10.24,-0.0802,-0.1729,0.0187
-0.2825,-0.7997,-10.1275,-0.0592,-0.2196,0.0107
-0.0886,-0.8188,-10.9343,-0.0213,-0.2425,-0.0304
0.0646,-0.9026,-11.2073,-0.0211,-0.2393,0.0029
0.4764,-1.2186,-10.5034,-0.0791,-0.2766,0.0362
0.589,-1.4006,-9.8904,-0.1372,-0.3131,-0.0179
0.3352,-1.1995,-9.7109,-0.1689,-0.3408,-0.0925
-0.1676,-0.8021,-10.1131,-0.1591,-0.3573,-0.1231
-0.5387,-0.4764,-10.5321,-0.1362,-0.3499,-0.1127
-0.8284,-0.4717,-10.8266,-0.1154,-0.2928,-0.1061
-0.6512,-0.6991,-10.8816,-0.1271,-0.2209,-0.0879
-0.067,-1.0415,-10.2927,-0.1553,-0.1287,-0.0695
-0.0192,-1.0726,-9.9982,-0.1945,-0.0421,-0.0919
-0.498,-0.8308,-10.1562,-0.2542,-0.0552,-0.1284
-0.9385,-0.4788,-10.3956,-0.3032,-0.1303,-0.1378
-1.1947,-0.2562,-10.6135,-0.3072,-0.1927,-0.113
-0.759,-0.2777,-10.1538,-0.2686,-0.1383,-0.0701
-0.5483,-0.3783,-10.0317,-0.2001,-0.0088,-0.0509
-0.644,-0.3543,-10.3813,-0.1479,0.0562,-0.0735
-0.5076,-0.4477,-10.6446,-0.1183,0.0629,-0.0754
0.0407,-0.7542,-10.4483,-0.1143,0.0695,-0.0413
0.7278,-1.1277,-9.9527,-0.1167,0.0957,-0.0205
0.8188,-1.1468,-9.8809,-0.1263,0.1092,-0.0274
0.4788,-0.747,-10.2903,-0.1388,0.0381,-0.0482
0.2777,-0.3879,-10.8433,-0.1266,-0.0789,-0.0445
0.1077,-0.2945,-10.8697,-0.0823,-0.1708,-0.0179
-0.1939,-0.3089,-10.9607,-0.0637,-0.2441,-0.0176
-0.5578,-0.3855,-11.0421,-0.0632,-0.2345,-0.041
-0.9912,-0.3855,-11.1522,-0.0821,-0.1956,-0.0586
-1.1492,-0.4908,-11.2527,-0.1082,-0.1298,-0.0616
-1.2905,-0.5124,-11.1977,-0.1458,-0.048,-0.0349
-1.3288,-0.4908,-10.8864,-0.2022,0.0203,-0.0021
-1.0223,-0.5171,-10.489,-0.2393,0.1005,0.0213
-0.2394,-0.7063,-9.5816,-0.222,0.2172,0.0418
0.3232,-0.8284,-8.4276,-0.1612,0.3563,0.0562
0.4812,-0.6608,-7.9368,-0.0882,0.4557,0.0576
0.3663,-0.3304,-7.8697,0.0096,0.4922,0.077
0.668,-0.17,-7.8482,0.1332,0.4445,0.118
1.0487,-0.1365,-7.9344,0.2902,0.3704,0.15
1.3144,-0.2155,-8.9639,0.4618,0.2638,0.1426
1.3647,-0.2562,-11.212,0.6113,0.1388,0.1055
0.9601,-0.3089,-12.9167,0.6611,-0.0677,0.0869
0.6871,-0.5794,-12.9119,0.5545,-0.3309,0.0799
0.3376,-0.7925,-11.7699,0.3989,-0.4831,0.0381
-0.1796,-0.6488,-10.8074,0.3232,-0.5183,-0.0181
-0.5962,-0.4238,-10.9702,0.3547,-0.474,-0.0485
-0.9888,-0.2993,-11.7053,0.4269,-0.3762,-0.0466
-0.9864,-0.4453,-11.5592,0.4479,-0.2984,-0.0362
-0.7542,-0.9816,-10.7931,0.3528,-0.1977,-0.004
-0.8619,-0.9625,-10.2687,0.284,-0.0983,-0.0221
-0.5722,-0.8475,-10.0365,0.2483,-0.0589,-0.029
-0.7542,-0.6393,-10.07,0.2364,-0.0043,-0.036
-0.9505,-0.3639,-10.0197,0.2547,0.0155,-0.0466
-1.0104,-0.261,-9.833,0.2992,0.0608,-0.0448
-0.8284,-0.2729,-9.4978,0.3685,0.1402,-0.0282
-0.7685,-0.4741,-9.3087,0.4519,0.2539,-0.0093
-0.68,-0.6033,-9.6103,0.5279,0.32,0.0
-0.5626,-0.7111,-10.1251,0.5844,0.3509,0.0053
-0.3855,-0.7326,-10.4531,0.6339,0.3304,-0.0005
-0.1221,-0.8811,-10.659,0.6571,0.3056,-0.0056
-0.0144,-0.8882,-10.9247,0.6787,0.2651,-0.02
-0.1221,-1.0391,-11.5568,0.6734,0.1809,-0.0498
-0.1891,-1.2689,-12.1889,0.6435,0.0546,-0.0839
-0.2155,-1.3886,-12.1171,0.5793,-0.0754,-0.1066
-0.2682,-1.6424,-11.4108,0.478,-0.1673,-0.1082
-0.3879,-1.4581,-10.9319,0.4215,-0.2518,-0.1196
-0.5411,-1.3024,-10.8601,0.4026,-0.2537,-0.1418
-0.8595,-1.324,-11.0014,0.3808,-0.2057,-0.1559
-1.2019,-1.3934,-11.3365,0.3427,-0.1825,-0.1639
-1.0798,-1.5227,-11.1713,0.2809,-0.1447,-0.1625
-0.8978,-1.6616,-10.5082,0.2158,-0.0448,-0.1346
-0.8236,-1.5945,-9.8258,0.1857,0.0959,-0.1069
-0.7207,-1.5443,-9.7947,0.1892,0.2265,-0.0981
-0.6728,-1.5467,-9.8713,0.186,0.4021,-0.0906
-1.2354,-1.1037,-9.5457,0.2177,0.6243,-0.0903
-0.6895,-1.0319,-9.5481,0.19,0.8076,-0.1442
1.1444,-1.3767,-9.4379,0.2795,1.0067,-0.0901
1.8387,-2.1261,-9.4523,0.3648,1.1738,0.033
2.2936,-2.6887,-9.8354,0.3054,1.0411,-0.0354
2.6145,-3.0287,-9.7803,0.1244,0.7093,-0.1783
2.4421,-2.6839,-9.8497,-0.0149,0.3011,-0.263
2.1859,-1.81,-11.2767,-0.0645,-0.0048,-0.2427
1.2713,-1.0104,-11.2911,-0.0506,-0.2236,-0.1719
0.4573,-0.498,-10.999,-0.0085,-0.3493,-0.1903
-0.7614,0.0862,-11.3605,0.0357,-0.3512,-0.2673
-1.5706,0.5914,-12.6031,0.0426,-0.3501,-0.2427
-2.0494,1.3384,-15.0571,0.0863,-0.4266,-0.129
-3.711,1.008,-11.983,0.0019,-0.8489,-0.1178
-2.4181,-1.415,-10.1634,-0.0482,-1.0232,-0.4389
-3.7445,-1.8004,-12.7802,0.0253,-0.9094,-0.7573
-3.2848,-2.5187,-10.9535,-0.1316,-1.2436,-0.4375
-3.1915,-2.8156,-11.7651,-0.0589,-1.242,0.1279
-3.0382,-0.759,-15.6054,0.3571,-0.579,0.5244
-2.806,-1.3336,-13.3764,0.5468,0.2707,0.522
-0.5914,-4.0103,-10.1131,0.4836,1.2367,0.2755
0.6129,-4.853,-8.1331,0.2947,1.7922,0.0927
2.2577,-4.2042,-6.4907,0.1495,1.6955,0.089
2.1739,-3.1388,-6.6032,0.0357,1.0978,0.1687
2.6336,-1.3192,-6.5529,0.0293,0.4943,0.1292
1.3312,-0.5698,-7.0964,0.1343,0.2848,0.0578
0.2658,-0.9816,-7.6399,0.1575,0.4354,0.0727
-0.0096,-1.7502,-8.3725,0.0815,0.6816,0.1623
0.8499,-2.1332,-9.0692,-0.0349,0.8679,0.2651
1.798,-1.7262,-9.6367,-0.1069,0.8263,0.2683
2.32,-0.9481,-9.924,-0.1447,0.6238,0.2443
2.0782,-0.2729,-10.3477,-0.0975,0.3573,0.219
1.6592,-0.1389,-10.8409,-0.0184,0.118,0.214
1.0798,-0.4717,-11.0612,0.0,-0.0466,0.2118
0.6536,-0.814,-11.0349,-0.0352,-0.1559,0.2044
0.3711,-1.0463,-10.8673,-0.0837,-0.21,0.1908
0.2729,-1.0822,-10.5584,-0.1159,-0.2523,0.1849
