ax,ay,az,gx,gy,gz
-8.0206,-1.8986,-1.8818,-0.1815,0.3805,-0.044
-8.0852,-1.9249,-1.9656,-0.1649,0.2822,-0.0328
-8.0876,-1.8962,-2.0279,-0.1522,0.1945,-0.0218
-8.1116,-1.889,-2.047,-0.1506,0.1415,-0.016
-8.2241,-1.8962,-1.8986,-0.1442,0.0954,-0.0131
-8.4922,-1.8675,-1.81,-0.134,0.0629,-0.0157
-8.7819,-1.8914,-1.8052,-0.137,0.0173,-0.0144
-8.8466,-1.9178,-1.5395,-0.1338,-0.0256,-0.0168
-8.9591,-1.9393,-1.0894,-0.1154,-0.0037,-0.033
-9.1147,-2.0303,-0.8643,-0.0981,0.0349,-0.0496
-9.3254,-2.1213,-0.9266,-0.105,0.0703,-0.0565
-9.4739,-2.1524,-1.1085,-0.133,0.0877,-0.0456
-9.323,-2.1332,-1.403,-0.1623,0.1151,-0.0416
-9.1411,-1.992,-1.6544,-0.1625,0.1623,-0.0386
-9.1506,-1.8196,-1.9369,-0.1372,0.1998,-0.0365
-8.916,-1.7789,-2.1452,-0.1042,0.2158,-0.0341
-8.77,-1.8435,-2.2913,-0.0687,0.2094,-0.0282
-8.4707,-1.9178,-2.5355,-0.0346,0.1785,-0.0205
-8.2265,-1.9297,-2.7054,-0.008,0.129,-0.012
-8.0421,-1.9106,-2.6552,0.0053,0.0456,-0.0048
-7.932,-1.9297,-2.4995,0.0091,-0.049,-0.0027
-7.9775,-2.0255,-2.4517,0.0208,-0.1367,0.0048
-8.2672,-2.0566,-2.3032,0.0416,-0.2257,0.0123
-8.5569,-2.1308,-2.1907,0.0512,-0.3099,0.0155
-8.8873,-2.1093,-2.1763,0.045,-0.3589,0.0195
-9.1123,-2.0399,-2.0135,0.0341,-0.3491,0.0216
-9.3446,-2.0518,-1.8914,0.0429,-0.307,0.0226
-9.3661,-1.992,-1.7502,0.0541,-0.2521,0.0221
-9.3709,-2.0207,-1.5945,0.0725,-0.1988,0.0269
-9.2464,-2.0111,-1.5203,0.0858,-0.1684,0.0328
-9.1411,-1.9992,-1.4485,0.0949,-0.1396,0.0317
-9.0333,-1.9944,-1.403,0.0946,-0.1258,0.0325
-9.0142,-2.0423,-1.4174,0.0871,-0.125,0.0389
-8.9711,-1.9872,-1.5754,0.0805,-0.1428,0.0472
-8.9495,-1.9393,-1.798,0.0821,-0.1644,0.0512
-9.0333,-1.8842,-1.9632,0.1058,-0.1985,0.0472
-9.0477,-1.8771,-2.0016,0.1252,-0.2819,0.0498
-8.5593,-1.9441,-1.5874,0.1311,-0.3515,0.0602
-8.6335,-1.9345,-0.9433,0.1351,-0.376,0.064
-8.6694,-2.0231,-0.4573,0.1226,-0.4167,0.0504
-9.0118,-2.1308,-0.1987,0.1138,-0.4383,0.0208
-9.3494,-2.1787,0.4357,0.0933,-0.4844,-0.0144
-9.4858,-2.2745,0.8547,0.0618,-0.5199,-0.0624
-9.3972,-2.3607,1.3719,0.0373,-0.4724,-0.1178
-9.5026,-2.5259,1.7071,0.0203,-0.3821,-0.1924
-9.8474,-2.7126,1.8244,0.0016,-0.3842,-0.2609
-9.8857,-2.6671,1.391,-0.036,-0.5321,-0.2694
-9.5792,-2.7461,1.1756,-0.1015,-0.5574,-0.2382
-9.7348,-2.727,1.2713,-0.0967,-0.4018,-0.291
-10.1011,-2.8347,1.5371,-0.073,-0.2571,-0.3709
-9.9838,-2.9521,1.5323,-0.0586,-0.2705,-0.4237
-9.4188,-3.2034,1.0894,-0.0893,-0.3842,-0.4263
-8.6167,-3.3615,0.2227,-0.1855,-0.4437,-0.3893
-8.1762,-3.5602,-0.9864,-0.3014,-0.4671,-0.3648
-7.9368,-3.5482,-1.9249,-0.3091,-0.5628,-0.3597
-7.501,-3.4261,-2.636,-0.1708,-0.6592,-0.3501
-7.3789,-3.0358,-3.7373,0.0269,-0.7671,-0.3243
-7.4388,-2.9856,-4.4532,0.2705,-0.8308,-0.2766
-7.7548,-2.6432,-5.2601,0.5236,-0.8175,-0.1769
-8.3677,-2.32,-6.1483,0.6768,-0.7978,-0.1066
-8.3917,-1.913,-7.027,0.7957,-0.7261,-0.0522
-8.43,-1.2354,-6.9743,0.9233,-0.5516,0.0117
-8.4252,-0.7566,-7.015,0.9998,-0.3677,0.0895
-8.3917,-0.5914,-6.4907,1.0752,-0.1889,0.1636
-8.1307,-0.5962,-6.1124,1.1405,-0.0352,0.2398
-8.1618,-0.7135,-5.5067,1.1778,0.1135,0.3256
-8.3941,-0.8284,-4.5322,1.1924,0.2238,0.4231
-8.8633,-1.3503,-3.3471,1.1738,0.3301,0.5281
-9.074,-1.4676,-2.3679,1.1839,0.4029,0.6273
-9.4834,-1.7023,-0.8954,1.1967,0.4863,0.6917
-9.3494,-2.3798,-0.1796,1.2233,0.3459,0.7144
-8.248,-2.5355,0.7254,1.2239,0.0314,0.6979
-7.9511,-2.4253,0.9385,1.226,-0.4002,0.6379
-8.3055,-1.9752,0.6416,1.2143,-0.8631,0.5484
-8.8107,-1.5347,-0.407,1.1373,-1.1993,0.3946
-9.3925,-1.1995,-1.0558,1.0976,-1.3632,0.283
-9.2368,-0.905,-1.7286,1.1194,-1.3824,0.1921
-8.983,-0.8835,-1.8244,1.1447,-1.2614,0.1804
-8.8585,-0.905,-1.6664,1.1716,-1.0568,0.198
-8.6167,-0.8499,-1.2043,1.1652,-0.7973,0.2542
-8.1187,-0.9577,-0.7733,1.1008,-0.5484,0.3208
-7.7165,-0.9026,-0.2586,1.0275,-0.328,0.3608
-7.5824,-0.8787,0.2227,0.9795,-0.1623,0.3736
-8.1475,-1.0056,0.5818,0.9172,-0.012,0.4183
-8.6957,-1.0918,1.0511,0.8668,0.0893,0.4325
-8.6119,-1.3192,1.9273,0.8314,0.1356,0.4029
-8.9352,-1.5969,2.1332,0.7376,0.1183,0.3584
-9.3015,-1.7214,2.0351,0.6174,0.085,0.3107
-9.6582,-1.2594,2.0063,0.5137,0.069,0.2643
-9.8809,-1.2641,1.3838,0.4397,0.1116,0.2273
-9.8881,-1.1396,1.0822,0.3597,0.154,0.1815
-9.4978,-1.008,0.7997,0.3179,0.1833,0.1519
-9.3063,-1.0127,0.6249,0.2806,0.2142,0.1332
-9.4595,-1.1253,0.6393,0.2451,0.2657,0.1316
-9.5265,-1.1157,0.6249,0.2113,0.3581,0.1244
-9.3326,-1.1444,0.7781,0.1676,0.4479,0.1172
-8.9399,-1.2546,0.9242,0.1204,0.4927,0.1183
-8.5832,-1.3168,1.0798,0.0602,0.4546,0.114
-8.4946,-1.3479,1.2282,0.0176,0.3912,0.0991
-8.4467,-1.3934,0.9936,-0.0179,0.303,0.0754
-8.4803,-1.403,0.7518,-0.0568,0.2478,0.0522
-8.9304,-1.3767,0.5626,-0.0877,0.2425,0.0416
-9.3087,-1.391,0.4669,-0.1138,0.2558,0.0368
-9.2799,-1.3958,0.3448,-0.1503,0.2478,0.0293
-9.0357,-1.4772,0.3663,-0.1841,0.2156,0.0131
-8.8969,-1.5155,0.3352,-0.2185,0.1628,-0.0072
-8.8705,-1.4653,0.1604,-0.2462,0.0983,-0.0237
-8.849,-1.4102,-0.1365,-0.2843,-0.0019,-0.0469
-8.7771,-1.336,-0.1963,-0.3262,-0.1135,-0.0624
-8.8274,-1.3671,-0.1484,-0.3584,-0.1998,-0.0757
-8.9878,-1.4676,-0.0694,-0.3896,-0.2497,-0.0831
-9.1746,-1.5754,-0.0431,-0.413,-0.2619,-0.0863
-9.244,-1.5921,-0.0527,-0.4194,-0.2342,-0.0829
-9.2081,-1.5969,-0.1149,-0.4202,-0.1865,-0.0632
-9.3637,-1.5897,-0.3065,-0.4223,-0.1292,-0.0448
-9.3781,-1.5227,-0.4956,-0.4125,-0.0746,-0.0245
-9.4188,-1.4198,-0.7207,-0.3984,0.008,-0.0109
-9.5553,-1.4533,-1.3408,-0.3869,0.0685,0.0149
-9.7707,-1.7933,-1.7214,-0.4501,0.0416,0.0224
-9.6774,-1.9513,-0.6728,-0.5899,-0.0584,-0.0088
-9.5624,-2.0255,0.1437,-0.708,-0.1375,-0.0208
-9.821,-2.162,0.1365,-0.7498,-0.1551,-0.0269
-10.3046,-2.3774,-0.012,-0.7413,-0.2467,-0.045
-9.8761,-2.3942,1.0582,-0.736,-0.284,-0.0922
-9.3637,-2.3822,1.719,-0.6925,-0.2137,-0.1282
-9.153,-2.241,1.8244,-0.6286,-0.1479,-0.1476
-8.7915,-2.0494,1.5155,-0.5777,-0.1588,-0.1561
-8.7197,-1.8411,1.0367,-0.551,-0.1783,-0.149
-8.7197,-1.7454,0.2825,-0.5215,-0.219,-0.1383
-8.7484,-1.573,0.1867,-0.4858,-0.2531,-0.1436
-8.9136,-1.5131,-0.0239,-0.4359,-0.2334,-0.1471
-9.1435,-1.5921,-0.419,-0.3648,-0.1823,-0.1348
-9.2847,-1.6664,-0.5938,-0.291,-0.1164,-0.1228
-9.3134,-1.81,-0.8164,-0.2329,-0.0333,-0.117
-9.4212,-1.8627,-1.1133,-0.198,0.0666,-0.0978
-9.4068,-1.8699,-1.4629,-0.1537,0.166,-0.0775
-9.3565,-1.8938,-1.7741,-0.1295,0.2513,-0.0584
-9.2775,-2.0997,-1.7334,-0.1657,0.2723,-0.0592
-9.2536,-2.2242,-0.9266,-0.2478,0.2475,-0.0634
-9.4643,-2.1572,-0.2945,-0.3272,0.2427,-0.0533
-9.9862,-2.0255,0.091,-0.3576,0.2798,-0.0506
-10.4363,-2.0063,0.1341,-0.3882,0.3174,-0.0592
-10.5991,-2.0973,0.4812,-0.4511,0.3445,-0.0847
-10.4291,-2.0853,1.0199,-0.502,0.4135,-0.1175
-10.2089,-1.9776,1.0918,-0.494,0.5446,-0.1402
-10.0628,-1.9369,0.9481,-0.4695,0.6656,-0.1607
-9.6774,-1.9728,0.7901,-0.4453,0.7389,-0.1793
-9.2799,-1.9609,0.4764,-0.4298,0.7576,-0.2014
-8.9663,-1.9297,-0.2777,-0.4104,0.7466,-0.2089
-8.6263,-1.7238,-0.8763,-0.3842,0.6851,-0.1969
-8.6503,-1.6328,-1.1803,-0.3331,0.6342,-0.2102
-8.442,-1.6113,-1.6281,-0.2705,0.4978,-0.174
-8.2696,-1.6113,-1.9872,-0.2276,0.4463,-0.1487
-8.5497,-1.652,-2.4157,-0.1759,0.4367,-0.1364
-8.6,-1.731,-2.466,-0.1053,0.3762,-0.1042
-8.6191,-1.7693,-2.4014,-0.0754,0.311,-0.0759
-8.6886,-1.8914,-2.4062,-0.0799,0.2545,-0.044
-8.8274,-1.9034,-2.5642,-0.0941,0.2009,0.0069
-9.335,-2.1284,-2.5259,-0.1476,0.1045,0.0397
-9.2129,-2.2218,-1.5347,-0.2068,0.0306,0.0533
-9.3996,-2.1261,-0.3759,-0.2132,0.0938,0.069
-9.8976,-2.1117,0.6919,-0.2073,0.2158,0.0679
-10.5321,-2.2051,1.075,-0.2126,0.3126,0.0514
-10.3549,-2.2984,1.2258,-0.2745,0.3392,0.0325
-9.6558,-2.296,1.2594,-0.3624,0.4349,0.0051
-9.2823,-2.1117,1.2234,-0.4266,0.5958,-0.0509
-8.9519,-1.9178,0.8332,-0.4551,0.7072,-0.0863
-8.6311,-1.7861,0.1891,-0.4655,0.7695,-0.0845
-8.2911,-1.6544,-0.5052,-0.462,0.8013,-0.0741
-8.0373,-1.5897,-0.9744,-0.4287,0.7989,-0.0842
-7.7907,-1.549,-1.4006,-0.3608,0.7506,-0.1002
-7.6974,-1.6017,-1.7214,-0.2771,0.6688,-0.1178
-7.7285,-1.7214,-2.0446,-0.2025,0.5524,-0.1287
-7.7931,-1.7861,-2.2553,-0.149,0.401,-0.1551
-7.7357,-1.9225,-2.4157,-0.1188,0.2393,-0.1615
-7.9416,-1.9417,-2.6001,-0.0943,0.1116,-0.1537
-8.1211,-1.9225,-2.6671,-0.0826,-0.0037,-0.1202
-8.4204,-2.0063,-2.8132,-0.0711,-0.0719,-0.0997
-8.7029,-2.0423,-2.7222,-0.0693,-0.1053,-0.0829
-8.8298,-2.0016,-2.5163,-0.069,-0.0871,-0.0594
-9.0908,-1.9297,-2.3176,-0.0757,-0.0642,-0.037
-9.1913,-1.9896,-2.0997,-0.0943,-0.048,-0.0213
-9.2919,-2.0111,-2.0279,-0.1236,-0.0482,-0.0035
-9.1626,-1.9704,-1.8004,-0.1492,-0.0602,0.0168
-9.1746,-1.8364,-1.5993,-0.1548,-0.0224,0.0184
-9.4188,-1.8316,-1.5443,-0.1569,0.0192,0.0211
-9.4499,-1.8244,-1.5802,-0.1591,0.0496,0.0237
-9.3182,-1.8651,-1.7813,-0.1633,0.0922,0.024
-9.1004,-1.8603,-1.8675,-0.1633,0.1372,0.0187
-8.8514,-1.8028,-1.9513,-0.1487,0.1772,0.0115
-8.5688,-1.7909,-1.9201,-0.1287,0.2044,0.0117
-8.497,-1.7095,-2.0662,-0.1029,0.2284,0.0053
-8.2791,-1.743,-1.98,-0.0815,0.2041,0.0048
-8.1379,-1.7573,-1.9896,-0.0549,0.1759,0.0125
-8.1451,-1.7909,-1.9824,-0.0362,0.1516,0.0157
-8.272,-1.8842,-1.7645,-0.028,0.1186,0.0128
-8.4348,-1.8675,-1.743,-0.0285,0.0917,0.0152
-8.7436,-1.8866,-1.6688,-0.0352,0.0637,0.024
-8.9639,-1.8603,-1.5155,-0.0464,0.0528,0.0336
-9.177,-1.8148,-1.5083,-0.0493,0.0506,0.0341
-9.2153,-1.8028,-1.5897,-0.048,0.0725,0.0253
-9.2296,-1.8292,-1.6161,-0.0424,0.0973,0.0229
-9.0956,-1.8268,-1.5993,-0.0386,0.1218,0.0272
-9.0621,-1.8028,-1.719,-0.0437,0.1356,0.0285
-9.0022,-1.822,-1.8866,-0.0501,0.1311,0.0344
-9.019,-1.7765,-1.9249,-0.0544,0.137,0.0392
-8.9471,-1.7813,-1.9058,-0.0482,0.1383,0.0357
-8.8777,-1.7454,-1.8962,-0.0309,0.1535,0.0306
-8.8083,-1.7933,-1.822,-0.012,0.1431,0.024
-8.7221,-1.8771,-1.9082,0.0003,0.1116,0.0189
-8.7149,-1.8818,-2.0423,0.0056,0.0674,0.0176
-8.691,-1.9417,-2.1548,0.004,0.0053,0.0168
-8.7532,-1.8675,-2.1524,0.0053,-0.049,0.0107
-8.7747,-1.8627,-2.2482,0.0136,-0.085,0.0061
-8.8562,-1.8603,-2.2865,0.0277,-0.1106,0.0048
-8.8657,-1.8172,-2.3367,0.0426,-0.1236,0.0043
-8.9232,-1.8435,-2.4062,0.0624,-0.138,0.012
-8.9926,-1.8555,-2.387,0.0719,-0.1809,0.0112
-8.8705,-1.913,-2.1739,0.064,-0.2116,0.0067
-8.9352,-1.9752,-1.7909,0.0613,-0.2129,0.0083
-9.0812,-1.9656,-1.4581,0.0671,-0.1998,0.0029
-9.2512,-2.0087,-1.6305,0.0669,-0.1652,-0.0003
-9.2967,-2.0111,-1.7095,0.0695,-0.126,0.0013
-9.2296,-2.0063,-1.6783,0.0781,-0.0786,-0.0013
-9.2033,-1.8914,-1.5514,0.0959,-0.037,-0.004
-9.2057,-1.8531,-1.4413,0.1092,-0.0213,-0.012
-9.3494,-1.8818,-1.4581,0.1124,-0.032,-0.016
-9.1219,-1.9513,-1.4581,0.1119,-0.052,-0.0168
-9.1123,-1.9465,-1.4964,0.1148,-0.0544,-0.0123
-9.5074,-1.901,-1.2402,0.1159,-0.1085,-0.0091
-9.596,-1.8771,-0.7901,0.1148,-0.2364,-0.0091
-9.675,-1.9201,-0.3567,0.1159,-0.2811,-0.0136
-9.6462,-2.0758,0.1413,0.1164,-0.2643,-0.0325
-9.6199,-2.2841,0.4286,0.1018,-0.2118,-0.0794
-9.6127,-2.49,0.4525,0.0416,-0.2467,-0.1092
-9.1602,-2.557,0.5986,-0.0131,-0.3741,-0.1122
-8.4611,-2.399,0.8523,-0.0301,-0.4239,-0.1085
-8.7819,-2.4876,0.7159,-0.0432,-0.4104,-0.1327
-9.019,-2.5522,0.6656,-0.0554,-0.5151,-0.1863
-8.6742,-2.5762,0.0168,-0.0501,-0.5692,-0.1927
-8.9783,-2.6384,-0.3879,-0.0147,-0.5542,-0.1647
-9.6175,-2.715,-0.1293,-0.0298,-0.7346,-0.178
-9.4475,-2.9281,0.4764,-0.0655,-0.9316,-0.2406
-9.1842,-3.055,0.972,-0.06,-0.923,-0.3011
-9.3853,-3.3519,1.0463,-0.0765,-0.8665,-0.3608
-8.9663,-3.6775,0.1077,-0.1394,-0.8996,-0.396
-8.1116,-3.5075,-1.2689,-0.1247,-0.8777,-0.3531
-8.1666,-3.1819,-2.49,-0.0253,-0.8013,-0.2822
-8.4707,-2.8994,-3.7493,0.1492,-0.8116,-0.2377
-7.9942,-2.5235,-4.9536,0.3179,-0.7789,-0.2196
-7.6231,-2.3224,-6.2513,0.4687,-0.7088,-0.1958
-6.9911,-1.9441,-6.4955,0.6273,-0.5742,-0.1511
-7.2975,-1.4413,-5.8921,0.7661,-0.5241,-0.0586
-7.4723,-1.1899,-5.5545,0.8455,-0.5476,0.0157
-8.3558,-1.1564,-5.6862,0.9385,-0.5297,0.0536
-8.9376,-1.1277,-5.4827,1.0179,-0.4866,0.0898
-8.9974,-1.1444,-5.205,1.0605,-0.4229,0.1506
-8.8322,-0.9792,-4.5538,1.0674,-0.3456,0.214
-8.6574,-0.7015,-3.6488,1.0315,-0.2907,0.2864
-8.8801,-1.087,-2.9185,0.9459,-0.2132,0.3552
-9.2129,-1.0965,-1.9225,0.9494,-0.2305,0.4402
-9.6199,-1.482,-0.9002,0.939,-0.2193,0.4549
-9.9742,-1.7885,-0.0622,0.919,-0.2369,0.4397
-9.9335,-2.1332,0.419,0.8791,-0.1759,0.4106
-9.7181,-2.1548,0.7757,0.8727,-0.0901,0.3834
-9.5505,-2.0327,0.8715,0.9022,-0.0733,0.3917
-9.3589,-2.2098,0.3496,0.8913,-0.1617,0.3347
-8.1714,-1.3551,0.2897,0.8535,-0.3544,0.2326
-7.3933,-1.1205,-0.5291,0.8274,-0.5556,0.1958
-7.3119,-0.7254,-1.0726,0.8268,-0.7615,0.1655
-7.8027,-0.6345,-1.4653,0.8322,-0.8966,0.1428
-8.2265,-0.6129,-1.3288,0.8631,-0.9158,0.1572
-8.3103,-0.8356,-0.9816,0.8559,-0.8343,0.1759
-8.2791,-1.0463,-0.4597,0.8274,-0.6925,0.2062
-8.2672,-1.233,-0.0934,0.7674,-0.5372,0.2489
-8.1547,-1.3671,0.1413,0.6819,-0.4327,0.2862
-8.2744,-1.4413,0.6033,0.6022,-0.3437,0.3171
-8.8083,-1.5921,1.1253,0.5436,-0.2406,0.3256
-9.3518,-1.6424,1.2498,0.4687,-0.1897,0.2998
-9.4715,-1.5634,1.1588,0.3784,-0.1852,0.2614
-9.4164,-1.4461,1.0798,0.3102,-0.251,0.2156
-9.3326,-1.4078,0.996,0.2372,-0.3741,0.1697
-9.2296,-1.3958,1.1827,0.1857,-0.4748,0.1175
-9.1866,-1.482,1.4293,0.1593,-0.5335,0.0757
-9.4284,-1.64,1.6137,0.129,-0.5478,0.0458
-9.5193,-1.6879,1.5634,0.0909,-0.5316,0.0123
-9.414,-1.5897,1.3815,0.0536,-0.4823,-0.0125
-9.0621,-1.5131,1.0654,0.029,-0.4064,-0.0216
-8.8155,-1.4126,0.8571,0.0136,-0.2974,-0.0179
-8.5952,-1.3288,0.5986,0.0053,-0.1799,0.0
-8.4324,-1.3791,0.5315,0.0008,-0.0608,0.0266
-8.5329,-1.5323,0.5531,-0.0067,0.0501,0.0568
-8.6886,-1.6376,0.5962,-0.0224,0.1503,0.0818
-8.8155,-1.6855,0.6033,-0.0448,0.2321,0.1015
-8.9783,-1.6328,0.5794,-0.0653,0.2923,0.1135
-8.9687,-1.6616,0.6081,-0.0813,0.2928,0.1164
-9.0142,-1.6448,0.5411,-0.0925,0.2539,0.118
-8.9016,-1.6233,0.4693,-0.0999,0.1812,0.1215
-8.8873,-1.6855,0.4334,-0.1196,0.049,0.1183
-8.7963,-1.6951,0.5459,-0.1583,-0.121,0.1069
-8.8705,-1.6592,0.4094,-0.1913,-0.2971,0.0858
-8.8442,-1.64,0.4142,-0.2366,-0.4916,0.0648
-8.8729,-1.664,0.4214,-0.291,-0.6765,0.0389
-9.0644,-1.8244,0.6776,-0.3595,-0.8527,0.0144
-9.1004,-1.9082,1.1516,-0.4117,-0.9747,0.0032
-9.3446,-2.0375,1.4174,-0.441,-1.0019,-0.0123
-9.517,-2.1811,1.5778,-0.4727,-0.9739,-0.0309
-9.5744,-2.1476,1.4868,-0.4964,-0.8988,-0.0426
-9.6175,-2.0327,1.3503,-0.4964,-0.7786,-0.0498
-9.5433,-1.8435,0.9744,-0.4874,-0.6472,-0.0557
-9.5098,-1.6257,0.644,-0.4663,-0.4783,-0.048
-9.4834,-1.4916,0.1748,-0.4309,-0.3102,-0.0397
-9.4212,-1.4293,-0.2658,-0.4026,-0.1442,-0.0269
-9.2009,-1.391,-0.4693,-0.3733,-0.008,-0.0133
-9.1435,-1.3144,-0.7781,-0.3411,0.1346,0.0016
-9.1099,-1.3001,-1.1325,-0.3086,0.2401,0.0248
-9.1339,-1.4222,-1.3599,-0.2936,0.3,0.0445
-9.1219,-1.5443,-1.1732,-0.2769,0.3163,0.0655
-8.9759,-1.652,-0.5578,-0.2662,0.3416,0.0887
-9.0309,-1.8675,0.0096,-0.2627,0.4128,0.0997
-9.3757,-2.0853,0.0527,-0.2678,0.485,0.0941
-9.5864,-2.478,0.1006,-0.3254,0.4373,0.069
-9.1626,-2.7007,1.2761,-0.4263,0.3062,0.025
-8.904,-2.6169,2.0973,-0.4876,0.2097,-0.0069
-9.1243,-2.3655,2.6432,-0.526,0.0906,-0.0344
-9.4906,-2.1213,2.7342,-0.5454,0.0069,-0.0602
-9.809,-2.0351,2.3367,-0.546,-0.0336,-0.0895
-9.845,-2.0183,2.083,-0.5473,-0.0416,-0.1215
-9.5672,-1.7909,1.6041,-0.5364,0.0448,-0.1378
-9.3757,-1.585,0.7997,-0.4914,0.1932,-0.1391
-9.2608,-1.5347,0.0072,-0.429,0.3285,-0.133
-9.1602,-1.6927,-0.5459,-0.332,0.4096,-0.1362
-8.8729,-1.6017,-1.0343,-0.2537,0.5002,-0.1559
-9.0525,-1.6448,-1.4676,-0.1868,0.627,-0.1623
-9.0022,-1.7406,-1.6233,-0.1143,0.7011,-0.1263
-8.9328,-1.8004,-1.7597,-0.0759,0.7919,-0.097
-9.1482,-1.9489,-1.9656,-0.0578,0.8402,-0.0791
-9.1339,-2.0016,-1.8052,-0.0501,0.8319,-0.0669
-9.2296,-2.059,-1.4796,-0.0602,0.8284,-0.0504
-9.572,-2.2194,-1.2977,-0.0847,0.801,-0.0389
-9.8114,-2.2673,-1.4102,-0.1276,0.7003,-0.0408
-9.8737,-2.4014,-1.0008,-0.2196,0.5353,-0.0461
-9.8617,-2.3822,-0.4166,-0.304,0.4194,-0.041
-9.6702,-2.1284,0.067,-0.3192,0.3984,-0.0285
-9.8306,-1.9225,0.2634,-0.2878,0.4919,-0.0101
-10.1825,-1.9106,0.6273,-0.2446,0.567,-0.0165
-10.3166,-1.9585,0.8164,-0.2353,0.5769,-0.0386
-9.8497,-2.0231,0.9002,-0.2625,0.6089,-0.0648
-9.4116,-1.9201,0.2873,-0.2809,0.6941,-0.0861
-9.0668,-1.8268,-0.6081,-0.2872,0.7485,-0.0608
-8.8442,-1.6807,-0.8691,-0.2689,0.7434,-0.0128
-8.5569,-1.6233,-1.0151,-0.2403,0.7346,0.0149
-8.4443,-1.6209,-1.0774,-0.1895,0.7392,0.0256
-8.4467,-1.7214,-1.0367,-0.1415,0.7456,0.0344
-8.4851,-1.8268,-1.1444,-0.1053,0.7482,0.0456
-8.4946,-1.9489,-1.1277,-0.0943,0.7226,0.0392
-8.3629,-2.0159,-1.0223,-0.0906,0.6928,0.0314
-8.4228,-2.0566,-0.8906,-0.0802,0.6736,0.0256
-8.7652,-1.9585,-0.5794,-0.0911,0.6073,0.0368
-9.1363,-2.047,-0.1676,-0.1348,0.5313,0.0266
-9.56,-1.9513,0.2131,-0.1815,0.4852,0.0077
-9.9264,-1.901,0.589,-0.2401,0.4282,-0.0211
-9.8474,-1.8818,0.7398,-0.2888,0.4357,-0.0568
-9.6989,-1.8579,0.7015,-0.3059,0.5281,-0.0943
-9.5241,-1.8747,0.6249,-0.312,0.6259,-0.1226
-9.1243,-1.8387,0.2753,-0.3086,0.6792,-0.1274
-8.7939,-1.8124,-0.1221,-0.3128,0.7029,-0.1188
-8.5665,-1.7645,-0.5435,-0.3299,0.6651,-0.1063
-8.3677,-1.7454,-0.996,-0.3349,0.6289,-0.0989
-8.2648,-1.6927,-1.5538,-0.3102,0.5969,-0.0983
-8.1331,-1.719,-2.0806,-0.2635,0.567,-0.0925
-7.9464,-1.7334,-2.3918,-0.1956,0.5191,-0.0834
-7.7381,-1.7765,-2.4086,-0.1255,0.4466,-0.0821
-7.7213,-1.8148,-2.2984,-0.0794,0.3589,-0.0818
-7.8721,-1.8842,-2.2673,-0.0482,0.2595,-0.0765
-8.0972,-1.9082,-2.2649,-0.0298,0.1652,-0.0666
-8.3893,-2.0063,-2.2625,-0.0322,0.0887,-0.0608
-8.5665,-1.9489,-2.0303,-0.0442,0.0285,-0.0538
-8.8131,-1.901,-1.7957,-0.0485,-0.0051,-0.0509
-8.9591,-1.9369,-1.652,-0.0464,-0.049,-0.0501
-9.019,-1.8651,-1.7238,-0.048,-0.0722,-0.04
-9.1075,-1.8914,-1.6927,-0.0584,-0.0709,-0.0256
-9.1459,-1.9058,-1.6448,-0.077,-0.0629,-0.0179
-9.1937,-1.9058,-1.8052,-0.0901,-0.0344,-0.0099
-9.0788,-1.9273,-1.9369,-0.0938,-0.0005,-0.0008
-9.1411,-1.8986,-1.9848,-0.0914,0.0408,0.0088
-9.086,-1.8771,-1.9872,-0.0805,0.0887,0.0203
-8.9615,-1.81,-1.9321,-0.0645,0.1476,0.0232
-8.9663,-1.7957,-1.8316,-0.0528,0.1964,0.0144
-8.7077,-1.8172,-1.8268,-0.0402,0.2284,0.0131
-8.6263,-1.8004,-1.8986,-0.0232,0.2449,0.0189
-8.4779,-1.7334,-2.0542,-0.0064,0.2244,0.0232
-8.3725,-1.731,-2.1165,0.0139,0.1932,0.0242
-8.2768,-1.7262,-2.1524,0.0256,0.1407,0.0195
-8.3318,-1.7717,-2.138,0.032,0.0789,0.0088
-8.3941,-1.822,-2.0973,0.0405,0.0189,0.0123
-8.5449,-1.8387,-2.0111,0.0426,-0.0242,0.0144
-8.7317,-1.9106,-1.8914,0.0362,-0.0584,0.0155
-8.9447,-1.8938,-1.9106,0.0248,-0.0759,0.0181
-9.0884,-1.8675,-1.9106,0.0213,-0.0749,0.0277
-9.1554,-1.8196,-1.9513,0.02,-0.0637,0.0309
-9.1842,-1.7597,-1.9273,0.0173,-0.0458,0.0298
-9.1842,-1.798,-1.8483,0.0176,-0.0136,0.0272
-9.1746,-1.7861,-1.8651,0.024,0.0298,0.0221
-9.0692,-1.798,-1.8962,0.033,0.0727,0.0165
-8.9854,-1.8076,-1.9465,0.04,0.0935,0.0192
-8.8202,-1.7885,-2.0231,0.0509,0.0946,0.0245
-8.7484,-1.8196,-2.059,0.0533,0.0903,0.0237
-8.667,-1.8028,-2.0111,0.0538,0.0813,0.0216
-8.6718,-1.822,-1.8723,0.0581,0.0653,0.0226
-8.6479,-1.822,-1.7166,0.0576,0.0448,0.0234
-8.7125,-1.8866,-1.6472,0.0608,0.0274,0.0195
-8.679,-1.9465,-1.6113,0.0677,0.0053,0.0229
-8.7436,-1.9489,-1.7166,0.0679,-0.0282,0.0285
-8.746,-1.9441,-1.8747,0.0626,-0.0592,0.0317
-8.8059,-1.9154,-1.8364,0.0605,-0.0725,0.0322
-8.8657,-1.8699,-1.719,0.0685,-0.0669,0.0285
-9.0166,-1.8938,-1.5395,0.0834,-0.0653,0.0248
-9.1482,-1.8459,-1.4341,0.0933,-0.0701,0.024
-9.2177,-1.8579,-1.3503,0.1013,-0.0365,0.025
-9.596,-1.8555,-1.1588,0.1071,-0.0354,0.0322
-9.6558,-1.8124,-0.6752,0.1106,-0.0645,0.0277
-9.8617,-1.8818,-0.2227,0.1079,-0.0544,0.0048
-9.9431,-2.0494,0.1269,0.1063,-0.057,-0.008
-9.6462,-2.1859,0.498,0.0882,-0.0576,0.0131
-9.5672,-2.3176,1.1109,0.0533,-0.0069,0.0093
-9.7205,-2.4014,1.889,0.0024,-0.0258,-0.0512
-9.1985,-2.4804,2.7629,-0.036,-0.0083,-0.109
-9.0597,-2.5283,3.6368,-0.0552,0.1015,-0.162
-9.2967,-2.739,3.723,-0.0757,0.0562,-0.2531
-9.0956,-2.873,3.0263,-0.1114,-0.1727,-0.2968
-8.5593,-2.8252,1.403,-0.1306,-0.4455,-0.2769
-8.5976,-2.6983,0.4908,-0.1399,-0.6278,-0.2838
-9.0237,-2.715,-0.2251,-0.1548,-0.7877,-0.3267
-9.2608,-2.8276,-1.0223,-0.1322,-0.9774,-0.3786
-9.2943,-2.9473,-1.6041,-0.1359,-1.1026,-0.377
-9.256,-2.9664,-2.2434,-0.1223,-1.1407,-0.3536
-9.5505,-3.158,-2.2601,-0.1063,-1.1991,-0.385
-9.5696,-3.6823,-2.1404,-0.162,-1.299,-0.4429
-9.505,-3.9528,-3.3255,-0.1804,-1.3158,-0.4325
-8.6718,-3.7541,-5.0087,-0.0155,-1.2127,-0.3826
-8.0852,-3.3495,-6.6679,0.2489,-0.9931,-0.2345
-7.3095,-2.6288,-6.9983,0.5825,-0.8132,-0.1569
-7.0581,-1.901,-7.4508,0.7229,-0.6632,-0.0842
-7.1228,-1.6855,-7.446,0.8362,-0.6243,0.0021
-7.1802,-0.9385,-6.7205,0.9792,-0.5433,0.1338
-8.2432,-0.7278,-6.0118,1.0837,-0.4402,0.2414
-8.5018,-0.6608,-5.3893,1.1255,-0.2955,0.3163
-8.6646,-0.8068,-4.865,1.1111,-0.057,0.392
-9.1195,-1.0511,-4.0318,1.0701,0.1804,0.4943
-9.2416,-0.8667,-3.4931,1.084,0.2249,0.6102
-9.1459,-1.0391,-2.4995,1.0651,0.2116,0.6765
-9.1315,-1.1588,-1.9441,1.0008,0.1023,0.6917
-8.8155,-1.1827,-1.3575,0.9531,-0.0421,0.6446
-8.9376,-1.4054,-0.917,0.984,-0.2523,0.5985
-8.758,-1.2067,-0.5028,0.9406,-0.542,0.4812
-8.4587,-1.4485,-0.7183,0.9124,-0.7552,0.3656
-8.4922,-1.2785,-0.7159,0.9086,-0.9001,0.2835
-8.5904,-1.0199,-0.6369,0.9086,-1.0651,0.2494
-8.442,-1.166,-0.6416,0.8911,-1.1354,0.2214
-8.4779,-1.245,-0.5267,0.8596,-1.1213,0.2022
-8.5281,-1.2234,-0.6656,0.809,-0.9803,0.2028
-8.5641,-1.0606,-0.7374,0.7637,-0.7682,0.2129
-8.509,-0.9912,-0.8739,0.7099,-0.5215,0.2425
-8.4228,-0.893,-0.7925,0.6672,-0.2598,0.2726
-8.3677,-0.8811,-0.5267,0.6299,0.0128,0.3
-8.7676,-0.9385,-0.2083,0.5961,0.2952,0.3254
-9.0525,-1.1468,0.3472,0.5486,0.4604,0.3464
-8.9064,-1.3527,1.0822,0.5055,0.5806,0.3395
-8.7436,-1.5706,1.5826,0.4455,0.6139,0.3088
-8.849,-1.5395,1.4389,0.3709,0.5697,0.2702
-9.0621,-1.3312,1.166,0.3102,0.4703,0.2113
-9.2416,-1.1708,0.7901,0.2646,0.3246,0.1641
-9.2608,-1.1037,0.5818,0.2372,0.1812,0.1236
-9.323,-1.0918,0.6225,0.2161,0.0648,0.0895
-9.3877,-1.2282,0.5842,0.1937,-0.0003,0.0658
-9.3733,-1.3288,0.5842,0.1636,-0.0269,0.0581
-9.4523,-1.47,0.6416,0.134,0.0019,0.0613
-9.4499,-1.561,0.6273,0.0981,0.0576,0.0661
-9.402,-1.5969,0.6943,0.0557,0.0917,0.0655
-9.2823,-1.5897,0.8882,0.0168,0.1058,0.0624
-9.2751,-1.6305,1.0247,-0.0109,0.1079,0.0549
-9.4978,-1.6855,0.9888,-0.0338,0.1023,0.0429
-9.5385,-1.6735,0.8428,-0.0578,0.0805,0.0285
-9.5002,-1.6735,0.7661,-0.0735,0.0618,0.0059
-9.2967,-1.6472,0.7422,-0.0813,0.0304,-0.0197
-9.2536,-1.7526,0.51,-0.0906,-0.0203,-0.033
-9.3661,-1.743,0.2011,-0.1018,-0.0626,-0.0429
-9.517,-1.7095,-0.0096,-0.11,-0.0919,-0.0498
-9.6534,-1.652,-0.1915,-0.1111,-0.0994,-0.052
-9.6391,-1.5897,-0.3328,-0.1071,-0.0845,-0.0514
-9.6031,-1.5778,-0.4741,-0.1063,-0.0544,-0.0506
-9.5864,-1.494,-0.7254,-0.1114,-0.0163,-0.0418
-9.4834,-1.3838,-0.9601,-0.1202,0.0125,-0.0282
-9.3972,-1.2402,-1.2737,-0.1284,0.0304,-0.0136
-9.4739,-1.1181,-1.6065,-0.15,-0.0115,0.0051
-9.4427,-1.3144,-1.4748,-0.2057,-0.1689,0.0213
-9.0644,-1.5203,-0.7638,-0.2542,-0.2939,0.0434
-8.7436,-1.8603,0.1915,-0.275,-0.4197,0.0528
-8.4755,-2.2386,1.008,-0.3352,-0.6011,0.041
-8.2121,-2.4924,1.585,-0.4354,-0.8039,0.0195
-8.2073,-2.5307,2.1404,-0.4951,-0.9363,-0.0179
-8.7364,-2.2889,2.4373,-0.5023,-1.0363,-0.0573
-9.1411,-2.0614,2.1332,-0.4831,-1.0842,-0.0989
-9.4188,-1.9178,1.5155,-0.4623,-1.0341,-0.1255
-9.4739,-1.7454,0.8906,-0.4303,-0.923,-0.1332
-9.347,-1.5467,0.2203,-0.4008,-0.7693,-0.1316
-9.256,-1.5083,-0.4597,-0.3531,-0.5849,-0.1116
-9.0956,-1.4581,-0.9505,-0.3115,-0.3896,-0.0895
-8.9639,-1.4317,-1.5179,-0.2694,-0.2014,-0.0621
-8.916,-1.4629,-1.8435,-0.2212,-0.0309,-0.0237
-8.8418,-1.4964,-1.9321,-0.1695,0.1402,0.0048
-8.8585,-1.573,-1.913,-0.1298,0.2683,0.0317
-8.7891,-1.6664,-1.9369,-0.11,0.3656,0.0568
-8.8681,-1.7789,-1.8148,-0.1034,0.4386,0.0837
-8.8969,-1.8124,-1.7789,-0.1034,0.4706,0.1023
-9.1099,-2.0183,-1.9465,-0.1823,0.4154,0.1087
-9.2512,-2.3535,-0.972,-0.3389,0.2145,0.0839
-8.983,-2.4205,0.2011,-0.458,0.1092,0.0594
-9.2344,-2.308,1.1995,-0.4978,0.1394,0.04
-9.6774,-2.1739,2.2434,-0.5084,0.2081,-0.0232
-9.9431,-2.0662,2.6935,-0.4983,0.2534,-0.0887
-9.9335,-2.0877,2.6576,-0.4903,0.2523,-0.1202
-9.663,-2.0087,2.4684,-0.4994,0.2385,-0.1311
-9.4403,-1.7813,1.7262,-0.5065,0.247,-0.1356
-9.2033,-1.4868,0.7997,-0.4898,0.2603,-0.1255
-9.0261,-1.2617,-0.0838,-0.4314,0.3091,-0.101
-8.7724,-1.1157,-0.7685,-0.3403,0.376,-0.0781
-8.5521,-1.1588,-1.3623,-0.2403,0.4479,-0.0703
-8.3917,-1.2761,-1.7645,-0.1535,0.482,-0.0626
-8.2289,-1.5562,-2.138,-0.093,0.437,-0.0365
-8.102,-1.7813,-2.0423,-0.0474,0.4032,-0.0346
-8.351,-1.9992,-1.7885,-0.0477,0.3368,-0.0117
-8.4348,-2.1644,-1.3767,-0.0725,0.2611,0.0322
-8.7652,-2.162,-1.1564,-0.1013,0.2888,0.0522
-9.1913,-2.0877,-1.0271,-0.1087,0.3421,0.052
-9.6319,-2.1045,-0.5195,-0.134,0.3648,0.0549
-9.7851,-2.1428,-0.1149,-0.1769,0.3976,0.0317
-10.2544,-2.1452,-0.012,-0.2401,0.412,0.0128
-10.398,-2.1213,0.3448,-0.3096,0.3555,0.0053
-10.0413,-1.9034,0.7302,-0.3224,0.4191,-0.0005
-10.0892,-1.7095,0.7566,-0.279,0.6419,-0.0187
-10.1706,-1.6544,0.7542,-0.234,0.8484,-0.0416
-10.0604,-1.6879,0.6249,-0.2475,0.971,-0.0671
-9.7037,-1.8555,0.4334,-0.2891,0.9838,-0.0778
-9.2105,-1.8938,0.182,-0.3336,0.9206,-0.0682
-8.7029,-1.7597,-0.2394,-0.368,0.8553,-0.0608
-8.3701,-1.6065,-0.7278,-0.3677,0.7954,-0.0506
-8.1379,-1.5634,-1.1636,-0.3344,0.7115,-0.0336
-7.841,-1.5155,-1.5012,-0.2726,0.6067,-0.0211
-7.6662,-1.506,-1.6735,-0.2014,0.5116,-0.0205
-7.6734,-1.5634,-1.7573,-0.1415,0.4143,-0.0237
-7.7859,-1.6568,-1.8603,-0.0895,0.3323,-0.0195
-7.9727,-1.7262,-1.8531,-0.0578,0.2742,-0.0016
-8.2217,-1.8124,-1.8579,-0.0506,0.2185,0.0229
-8.521,-1.8244,-1.8196,-0.057,0.1713,0.0362
-8.8609,-1.8244,-1.6951,-0.0759,0.1447,0.0333
-9.0573,-1.8531,-1.6424,-0.0895,0.1106,0.033
-9.2727,-1.7765,-1.4605,-0.0997,0.0874,0.0418
-9.4403,-1.7406,-1.2905,-0.1098,0.0901,0.0464
-9.6103,-1.7262,-1.2282,-0.1202,0.1082,0.0456
-9.6007,-1.7526,-1.3455,-0.1356,0.1524,0.0512
-9.4619,-1.7502,-1.4006,-0.1476,0.2281,0.0552
-9.3901,-1.743,-1.4078,-0.1559,0.3219,0.0501
-9.2847,-1.7933,-1.4988,-0.1588,0.385,0.0472
-9.0716,-1.7406,-1.7238,-0.1556,0.4263,0.0477
-8.9256,-1.7119,-1.8771,-0.1498,0.4386,0.0461
-8.7891,-1.64,-1.9369,-0.1364,0.405,0.0384
-8.4874,-1.6089,-2.0566,-0.1023,0.3648,0.0365
-8.3151,-1.5419,-1.9824,-0.0645,0.3262,0.0429
-8.1906,-1.5227,-1.9537,-0.0405,0.2678,0.0386
-8.1235,-1.6137,-2.0518,-0.0288,0.2028,0.033
-8.2361,-1.6712,-2.1308,-0.0131,0.1218,0.0328
-8.2935,-1.7166,-2.0925,0.0003,0.0274,0.0309
-8.2911,-1.7454,-1.9992,-0.0021,-0.041,0.024
-8.4539,-1.743,-1.7166,-0.0096,-0.056,0.0115
-8.8178,-1.64,-1.5036,-0.016,-0.0512,0.0173
-9.1171,-1.743,-1.4509,-0.0234,-0.0421,0.0285
-9.3901,-1.7909,-1.4054,-0.0293,-0.0109,0.0333
-9.56,-1.7885,-1.4198,-0.0285,0.0416,0.0248
-9.7875,-1.7047,-1.4174,-0.0269,0.0938,0.0157
-9.8665,-1.6257,-1.4724,-0.0336,0.1244,0.0075
-9.7109,-1.6089,-1.6113,-0.0416,0.1687,0.0048
-9.5289,-1.6592,-1.6712,-0.0408,0.2241,-0.0003
-9.2799,-1.7238,-1.8076,-0.0338,0.2739,-0.0053
-9.0597,-1.6951,-2.0375,-0.0237,0.2976,-0.0008
-8.9016,-1.6759,-2.1141,-0.0141,0.2918,0.0056
-8.7604,-1.664,-2.1787,-0.0051,0.2438,0.0101
-8.6526,-1.6759,-2.2817,0.0029,0.1977,0.0155
-8.6718,-1.6568,-2.3367,0.0173,0.1428,0.0213
-8.6431,-1.6544,-2.3272,0.0312,0.0757,0.0266
-8.6143,-1.6113,-2.3391,0.0448,0.037,0.0269
-8.7077,-1.6592,-2.2482,0.0528,0.0048,0.0336
-8.8131,-1.6927,-2.0662,0.0546,-0.0386,0.0349
-8.9184,-1.7406,-1.8531,0.0517,-0.0703,0.04
-9.0501,-1.7286,-1.6807,0.0509,-0.0757,0.0349
-9.2751,-1.8172,-1.6496,0.0434,-0.0682,0.029
-9.2727,-1.7597,-1.6376,0.0386,-0.069,0.0195
-9.2703,-1.7262,-1.719,0.0474,-0.0205,0.016
-9.3661,-1.6257,-1.7597,0.0671,0.0149,0.0163
-9.3613,-1.6281,-1.8148,0.0829,0.0197,0.0141
-9.3757,-1.6352,-1.81,0.0946,0.0296,0.0085
-9.2823,-1.6927,-1.7526,0.1071,0.0203,0.0011
-9.1387,-1.7142,-1.8962,0.1215,0.0253,-0.0013
-9.1123,-1.7406,-1.8699,0.1316,0.0195,0.0019
-9.0285,-1.719,-1.8028,0.1362,0.0051,0.0013
-9.1243,-1.7573,-1.6783,0.1394,-0.0048,-0.0016
-9.1435,-1.7262,-1.64,0.1388,-0.0389,0.0024
-9.1411,-1.7478,-1.6544,0.1404,-0.0746,0.0061
-9.0956,-1.8364,-1.7071,0.1354,-0.0954,0.0125
-9.0836,-1.7526,-1.4653,0.1292,-0.1226,0.0144
-9.177,-1.834,-1.4293,0.1151,-0.1961,0.0253
-8.8945,-1.7645,-1.0104,0.1092,-0.2593,0.028
-9.1889,-1.7741,-0.6728,0.1031,-0.2686,0.0115
-9.1937,-1.8723,-0.3017,0.093,-0.2771,-0.0195
-9.402,-1.992,-0.2322,0.0877,-0.2537,-0.044
-9.4547,-1.9656,-0.316,0.0895,-0.2915,-0.0557
-9.3901,-1.9178,-0.4788,0.0834,-0.3541,-0.0634
-9.4547,-1.8435,-0.577,0.0775,-0.4181,-0.0624
-9.5217,-1.8196,-0.5914,0.0789,-0.4604,-0.0613
-9.6462,-1.8507,-0.3424,0.0959,-0.4679,-0.0791
-9.9096,-2.0016,0.0407,0.0973,-0.4767,-0.1215
-9.7659,-2.0806,0.3663,0.0773,-0.5295,-0.1628
-9.3374,-2.2338,0.328,0.0549,-0.5329,-0.1804
-9.2991,-2.3104,0.5842,0.0261,-0.5521,-0.1929
-9.0357,-2.4301,0.7207,-0.0051,-0.5958,-0.2321
-8.8562,-2.4972,0.6919,-0.0306,-0.5732,-0.2465
-9.1291,-2.5283,0.735,-0.0557,-0.5724,-0.2435
-9.4571,-2.4421,0.3903,-0.1087,-0.6062,-0.2617
-9.4188,-2.5091,-0.0263,-0.174,-0.6654,-0.2979
-8.7388,-2.5259,-0.8188,-0.2092,-0.6448,-0.3136
-8.4635,-2.6169,-1.3671,-0.2118,-0.5351,-0.2872
-8.5377,-2.6001,-1.063,-0.1905,-0.6262,-0.2731
-8.2313,-2.6815,-0.7254,-0.1857,-0.7075,-0.3014
-8.2983,-2.8778,-0.6033,-0.0879,-0.6997,-0.3235
-8.9064,-2.988,-0.6919,0.0512,-0.6571,-0.2942
-9.3685,-2.9257,-1.5443,0.1641,-0.7285,-0.259
-8.9543,-2.7629,-2.8563,0.2878,-0.6957,-0.2185
-8.2145,-2.49,-3.9097,0.4162,-0.5097,-0.1711
-7.9799,-2.2697,-4.4987,0.4988,-0.4045,-0.138
-7.2449,-1.7741,-4.9871,0.551,-0.405,-0.1127
-7.1826,-1.1492,-5.4348,0.6187,-0.4575,-0.0679
-7.3526,-0.7039,-5.6719,0.7208,-0.5033,-0.0016
-7.8602,-0.4932,-5.5091,0.8215,-0.4812,0.0658
-8.0732,-0.3903,-5.0374,0.9046,-0.4029,0.137
-8.5808,-0.4741,-4.7812,0.979,-0.2028,0.2022
-8.6574,-0.7302,-4.0055,1.0264,0.0237,0.267
-8.655,-0.9577,-2.8276,0.979,0.2569,0.3443
-9.3446,-1.3096,-1.8435,0.9705,0.4535,0.4338
-9.3901,-1.7861,-1.0558,0.9601,0.5372,0.4754
-9.2057,-1.9393,-0.668,0.9284,0.5873,0.4706
-9.0836,-1.6544,-0.3424,0.918,0.6033,0.461
-9.5409,-1.5467,-0.4429,0.983,0.5289,0.4455
-9.4499,-1.5969,-0.3112,1.0533,0.2651,0.3906
-9.2799,-1.6328,-0.1317,0.9459,-0.0711,0.2982
-8.7724,-1.5826,-0.7542,0.8314,-0.3888,0.223
-9.0022,-1.1396,-0.8045,0.8082,-0.6278,0.1817
-8.758,-1.1612,-1.008,0.81,-0.7853,0.1713
-8.4946,-1.1133,-0.9098,0.8194,-0.8548,0.1548
-8.3989,-1.087,-0.7901,0.8084,-0.818,0.1577
-8.5449,-1.2785,-0.6847,0.8063,-0.7053,0.1913
-8.7029,-1.3408,-0.6249,0.7927,-0.5566,0.2236
-8.734,-1.3144,-0.51,0.7376,-0.3992,0.2441
-8.7221,-1.3072,-0.1748,0.6936,-0.226,0.2585
-8.8155,-1.2043,-0.0383,0.6555,-0.0791,0.2665
-9.1171,-1.2258,-0.0479,0.6107,0.0168,0.2673
-9.3254,-1.2426,0.1867,0.5689,0.0975,0.2617
-9.5792,-1.2833,0.3926,0.5409,0.1444,0.2393
-9.7276,-1.3216,0.3352,0.4831,0.1652,0.1998
-9.675,-1.257,0.2801,0.4135,0.1697,0.1657
-9.7372,-1.2689,0.1628,0.3667,0.1793,0.1412
-9.8497,-1.3072,0.3304,0.3176,0.1716,0.1282
-9.6606,-1.4341,0.5674,0.2593,0.1567,0.1154
-9.4739,-1.4533,0.8332,0.2105,0.1537,0.093
-9.2344,-1.3982,0.8452,0.1641,0.141,0.0706
-9.0237,-1.3431,0.6823,0.1156,0.1021,0.0472
-8.7963,-1.1827,0.3879,0.0813,0.0298,0.0253
-8.5521,-1.1444,0.2777,0.0648,-0.0528,0.0096
-8.5736,-1.1923,0.328,0.0504,-0.1018,-0.0051
-8.9088,-1.3623,0.3974,0.041,-0.0997,-0.0072
-9.2009,-1.5155,0.5363,0.0261,-0.0613,-0.0043
-9.2703,-1.5634,0.6009,-0.0029,-0.0155,-0.0112
-9.1482,-1.6041,0.4405,-0.0373,0.0125,-0.0245
-9.1123,-1.5921,0.3232,-0.0679,0.0168,-0.0408
-9.0692,-1.5107,0.237,-0.0933,0.0016,-0.056
-8.9854,-1.4581,0.1844,-0.1116,-0.0203,-0.065
-8.77,-1.3934,0.0192,-0.1252,-0.0496,-0.0722
-8.734,-1.3934,-0.2298,-0.1431,-0.0807,-0.0783
-8.6646,-1.3216,-0.5531,-0.1532,-0.1122,-0.0754
-8.8322,-1.2546,-0.8404,-0.1724,-0.1423,-0.0637
-9.0094,-1.3455,-0.6345,-0.2046,-0.1591,-0.0506
-9.2273,-1.4198,-0.249,-0.2185,-0.141,-0.0426
-9.4068,-1.6616,0.0862,-0.2393,-0.13,-0.0477
-9.5122,-1.9345,0.5148,-0.2912,-0.1569,-0.0573
-9.3948,-2.1356,0.8739,-0.3573,-0.1644,-0.0813
-9.3518,-2.0997,1.0415,-0.4072,-0.1657,-0.1079
-9.3111,-1.968,0.8021,-0.4378,-0.1612,-0.1156
-9.2799,-1.7382,0.3543,-0.4533,-0.1639,-0.1191
-9.256,-1.6879,0.0,-0.4703,-0.174,-0.1191
-9.1698,-1.5443,-0.4908,-0.4748,-0.182,-0.1172
-9.1746,-1.5275,-0.4717,-0.4698,-0.2108,-0.126
-9.0644,-1.5658,-0.486,-0.4692,-0.2321,-0.1276
-8.9687,-1.506,-0.5531,-0.4439,-0.2326,-0.1154
-9.1339,-1.5347,-0.6249,-0.4178,-0.21,-0.0906
-9.2991,-1.5706,-0.7398,-0.3984,-0.1625,-0.077
-9.6558,-1.7549,-1.2977,-0.4231,-0.1506,-0.0706
-9.481,-1.9824,-0.6009,-0.4978,-0.222,-0.0858
-9.098,-1.9656,0.0646,-0.5436,-0.1905,-0.1026
-9.0621,-1.9872,0.7781,-0.5223,-0.129,-0.1079
-9.1363,-1.9848,1.063,-0.4903,-0.0869,-0.1095
-9.3494,-2.0662,0.8739,-0.4783,-0.0413,-0.114
-9.2703,-2.0303,0.4597,-0.4842,0.02,-0.1114
-9.2225,-1.9034,0.0551,-0.4884,0.1047,-0.1069
-9.1698,-1.6999,-0.1269,-0.4682,0.1839,-0.1116
-9.1099,-1.5754,-0.5195,-0.4149,0.2372,-0.1116
-9.0597,-1.6185,-1.0798,-0.3608,0.2633,-0.1002
-8.8681,-1.7119,-1.2139,-0.3219,0.2657,-0.0914
-8.7197,-1.7957,-1.0056,-0.308,0.2726,-0.1069
-8.8825,-1.7669,-1.0175,-0.2827,0.2651,-0.1077
-9.177,-1.8411,-1.1636,-0.243,0.2395,-0.0893
-9.4427,-1.9321,-1.1396,-0.2182,0.1948,-0.0821
-9.5122,-2.0255,-0.826,-0.2188,0.1442,-0.0781
-9.4954,-2.0973,-0.6967,-0.222,0.1676,-0.0717
-9.4212,-2.1524,-0.565,-0.2395,0.2353,-0.0719
-9.3757,-2.1931,-0.407,-0.2763,0.2998,-0.0743
-9.4858,-2.241,-0.1389,-0.2982,0.3325,-0.0853
-9.5648,-2.15,0.0503,-0.3155,0.3325,-0.0885
-9.5193,-2.0877,-0.1173,-0.3264,0.3381,-0.0903
-9.4715,-1.9513,-0.3065,-0.316,0.3698,-0.0903
-9.3853,-1.8842,-0.4956,-0.3104,0.4173,-0.0711
-9.4786,-1.8292,-0.7111,-0.2801,0.4935,-0.1053
-9.5337,-1.7621,-0.7494,-0.2201,0.4962,-0.0863
-9.2249,-1.8076,-0.4764,-0.1727,0.5335,-0.0381
-9.4858,-1.98,-0.3926,-0.1703,0.6371,-0.0501
-9.5792,-2.1835,-0.0766,-0.1649,0.6752,-0.0621
-9.2584,-2.1524,0.4597,-0.1711,0.7149,-0.065
-9.1626,-2.0901,0.3615,-0.1953,0.7975,-0.0786
-9.2033,-2.1093,0.091,-0.2273,0.8258,-0.0919
-8.9711,-2.1237,-0.0886,-0.2446,0.7805,-0.0935
-8.6862,-2.0925,-0.1508,-0.267,0.7117,-0.1026
-8.576,-2.0806,-0.2059,-0.291,0.6089,-0.1151
-8.4252,-1.9752,-0.3496,-0.3027,0.5225,-0.1276
-8.3965,-1.8962,-0.8236,-0.2942,0.457,-0.1298
-8.3869,-1.8603,-1.3767,-0.2846,0.4135,-0.1154
-8.3725,-1.7789,-1.6855,-0.2641,0.3733,-0.0991
-8.3175,-1.7286,-1.9944,-0.2356,0.3461,-0.0933
-8.2408,-1.7286,-2.3439,-0.1961,0.3384,-0.0898
-8.3079,-1.7645,-2.8084,-0.1607,0.3365,-0.0693
-8.5258,-1.8723,-2.9568,-0.1383,0.292,-0.0453
-8.6335,-1.9178,-2.6935,-0.1244,0.2345,-0.0434
-8.8322,-1.8962,-2.3487,-0.1095,0.2196,-0.0485
-8.9902,-1.913,-2.1644,-0.0949,0.2284,-0.0501
-9.0573,-2.0303,-1.9178,-0.0695,0.2763,-0.0365
-9.2799,-2.0207,-1.6376,-0.0306,0.2987,-0.0256
-9.3541,-1.9585,-1.3815,-0.0309,0.279,-0.0181
-9.402,-1.9225,-1.403,-0.064,0.2654,-0.0152
-9.4763,-1.9585,-1.4222,-0.0973,0.2774,-0.0077
-9.3685,-1.9441,-1.5036,-0.122,0.2689,0.0059
-9.0309,-1.8794,-1.5083,-0.145,0.2705,0.0133
-8.6479,-1.8364,-1.6448,-0.1543,0.2984,0.0261
-8.4659,-1.7789,-1.6688,-0.1388,0.2939,0.0413
-8.0325,-1.7621,-1.7621,-0.1255,0.2627,0.0544
-7.7812,-1.7789,-1.7885,-0.1156,0.2388,0.061
-7.6782,-1.7597,-1.8028,-0.109,0.1966,0.0648
-7.6662,-1.7502,-1.9106,-0.1013,0.1522,0.0576
-7.8147,-1.8076,-1.8723,-0.0807,0.1188,0.0458
-8.09,-1.7023,-1.9321,-0.0554,0.0685,0.0381
-8.3246,-1.7597,-1.8316,-0.0429,0.024,0.0274
-8.6215,-1.8076,-1.7286,-0.0338,0.0043,0.0117
-8.9256,-1.8387,-1.6137,-0.0394,0.0029,0.0019
-9.0908,-1.8866,-1.6089,-0.0421,0.0253,-0.0019
-9.098,-1.9178,-1.6712,-0.0357,0.0711,-0.004
-9.1578,-1.8938,-1.8699,-0.033,0.1207,-0.0019
-9.086,-1.8818,-1.8316,-0.0312,0.1556,0.0029
-8.9663,-1.8555,-1.7597,-0.0352,0.1868,0.0077
-8.9088,-1.8579,-1.7957,-0.036,0.2228,0.0075
-8.8609,-1.8651,-1.9848,-0.0381,0.238,0.012
-8.6718,-1.8771,-2.162,-0.036,0.2385,0.0208
-8.7077,-1.8794,-2.1596,-0.0312,0.215,0.0258
-8.4898,-1.81,-2.3032,-0.0242,0.1809,0.028
-8.4874,-1.7573,-2.4852,-0.0093,0.1399,0.0352
-8.4228,-1.7597,-2.6025,0.0088,0.0863,0.048
-8.4204,-1.7861,-2.5881,0.0277,0.0434,0.0554
-8.497,-1.7669,-2.5139,0.04,-0.0064,0.0554
-8.6263,-1.8244,-2.4134,0.0466,-0.0474,0.0562
-8.7747,-1.7837,-2.2817,0.048,-0.0618,0.0554
-8.7987,-1.7957,-2.2865,0.0517,-0.0663,0.0624
-8.8538,-1.7813,-2.2051,0.0573,-0.0624,0.0687
-8.8897,-1.7669,-2.0494,0.0589,-0.0501,0.0706
-8.9423,-1.8148,-1.9225,0.0509,-0.0421,0.0711
-9.0166,-1.8292,-1.7669,0.0368,-0.0264,0.0679
-9.1554,-1.8818,-1.6688,0.0173,-0.0131,0.064
-9.1602,-1.8555,-1.5993,0.0112,0.0029,0.0608
-9.2584,-1.8196,-1.64,0.0128,0.0131,0.0533
-9.2249,-1.7933,-1.7358,0.0189,0.0155,0.0434
-9.1291,-1.8316,-1.7071,0.0245,0.0277,0.04
-9.1459,-1.8052,-1.7885,0.0344,0.0354,0.0392
-8.9016,-1.8459,-1.8794,0.0394,0.0405,0.037
-8.7915,-1.7693,-1.9201,0.0477,0.0496,0.0336
-8.6933,-1.7597,-2.0183,0.0589,0.0437,0.0338
-8.6167,-1.7837,-1.9992,0.0714,0.0269,0.0386
-8.6574,-1.7526,-2.0758,0.0842,-0.0072,0.0397
-8.758,-1.81,-2.1165,0.0853,-0.0514,0.0378
-8.8969,-1.8411,-2.0662,0.0837,-0.1047,0.037
-8.8394,-1.8435,-1.9369,0.085,-0.1348,0.036
-9.0501,-1.8771,-1.889,0.0893,-0.1652,0.0357
-8.983,-1.9034,-1.8387,0.0951,-0.1719,0.045
-8.9663,-1.8076,-1.6735,0.0962,-0.1569,0.048
-9.1889,-1.8196,-1.3264,0.0933,-0.1298,0.0437
-9.2967,-1.8938,-1.1588,0.0773,-0.145,0.0333
-9.4667,-1.9776,-0.838,0.0413,-0.2201,0.0386
-9.3757,-1.9896,-0.3448,0.0272,-0.2561,0.0418
-9.6438,-1.9513,0.1484,0.0458,-0.2217,-0.0003
-9.6869,-2.071,0.4477,0.0565,-0.2126,-0.0565
-9.584,-2.2194,0.5387,0.029,-0.1961,-0.0706
-9.2249,-2.2841,0.3903,-0.0226,-0.1865,-0.0597
-9.1028,-2.2075,-0.0311,-0.0389,-0.1801,-0.0466
-8.9304,-2.047,-0.2131,-0.0253,-0.219,-0.0474
-8.8825,-2.0279,-0.2705,-0.0093,-0.2686,-0.0821
-8.8466,-2.0638,-0.4453,0.0064,-0.3568,-0.1085
-8.7245,-1.9896,-0.8092,0.0653,-0.4858,-0.1242
-8.7317,-1.9872,-0.8523,0.1039,-0.6696,-0.1298
-8.9184,-2.2865,-0.565,0.0989,-0.85,-0.0909
-9.1051,-2.4181,0.3735,0.0925,-0.9803,-0.11
-9.1075,-2.66,1.5826,0.1079,-0.9702,-0.2233
-9.3853,-3.1053,1.9848,0.0906,-0.8468,-0.2854
-10.0102,-3.4429,2.0159,0.0474,-0.8841,-0.303
-9.9719,-3.4907,1.6831,-0.056,-0.9611,-0.2763
-10.422,-3.383,1.0008,-0.1908,-1.0224,-0.2601
-10.2328,-3.2681,0.1437,-0.3104,-1.0592,-0.3104
-9.7037,-3.0143,-1.2186,-0.3872,-1.0387,-0.3794
-8.8059,-3.1508,-2.7294,-0.461,-1.0253,-0.4074
-7.5274,-3.0718,-3.9504,-0.3832,-1.0368,-0.3882
-6.9911,-2.6959,-4.8171,-0.0645,-0.9697,-0.32
-6.8331,-2.2218,-4.8866,0.2198,-1.0088,-0.2539
-7.2616,-2.1931,-5.5857,0.405,-1.0237,-0.1932
-7.6016,-2.0255,-5.4324,0.5958,-1.0595,-0.1274
-8.0349,-1.9034,-5.3654,0.7424,-0.9068,-0.0354
-8.6574,-1.7669,-5.3774,0.8511,-0.635,0.0344
-9.4523,-1.6041,-4.9895,0.9481,-0.4042,0.1058
-8.9376,-1.3886,-4.6902,1.0349,-0.1593,0.1958
-8.8992,-1.1779,-4.2689,1.0728,0.0679,0.247
-8.6407,-0.9242,-3.9169,1.0227,0.1588,0.2942
-8.4946,-1.0487,-3.5147,1.0011,0.2292,0.3437
-8.6455,-1.0032,-2.9401,1.0802,0.2324,0.3978
-9.1075,-1.0558,-2.332,1.165,0.2201,0.4557
-10.2999,-1.391,-1.7382,1.2324,0.1897,0.502
-10.7212,-1.4772,-1.1229,1.1892,0.0911,0.4474
-10.4818,-1.8196,-0.656,1.1002,0.0016,0.3712
-9.6774,-1.6855,-0.4932,0.9691,-0.1303,0.3232
-8.825,-1.4629,-0.577,0.8306,-0.2907,0.2569
-7.8051,-1.2498,-1.0127,0.7845,-0.4628,0.23
-7.2065,-0.917,-1.0678,0.8207,-0.6078,0.207
-7.1132,-0.9337,-1.3001,0.8474,-0.7645,0.2499
-7.6447,-1.0127,-1.166,0.8884,-0.8961,0.2753
-7.8195,-1.0918,-0.9577,0.9254,-0.9635,0.2963
-7.9703,-1.2881,-0.5291,0.9726,-0.9228,0.3235
-8.1834,-1.3527,-0.2203,0.9657,-0.8463,0.3445
-8.2432,-1.3408,-0.2825,0.9459,-0.7578,0.3493
-8.3294,-1.2761,-0.2634,0.93,-0.6558,0.348
-8.8585,-1.3024,-0.0072,0.9268,-0.5348,0.3461
-9.0764,-1.3336,0.237,0.9009,-0.4357,0.3413
-9.1602,-1.3527,0.2921,0.846,-0.3296,0.3309
-8.9519,-1.2594,1.1564,0.757,-0.2614,0.3203
-9.3972,-0.9792,0.182,0.6606,-0.2233,0.32
-10.0963,-1.0295,1.233,0.6352,-0.1476,0.2976
-10.0245,-1.3551,2.0901,0.5263,-0.097,0.2851
-10.2783,-1.561,2.4397,0.4069,-0.0061,0.2529
-10.2759,-1.6185,2.5139,0.3176,0.0605,0.2054
-9.8426,-1.6424,2.2913,0.2142,0.0642,0.1484
-9.3565,-1.5514,2.1548,0.1335,-0.0218,0.11
-8.5497,-1.2091,1.7717,0.0765,-0.1655,0.0826
-8.327,-1.0654,1.3671,0.0701,-0.2619,0.0794
-8.7484,-1.2186,1.3384,0.1023,-0.3413,0.0549
-8.4707,-1.3862,1.5634,0.1018,-0.3762,0.0285
-7.8961,-1.4509,1.5993,0.0879,-0.3544,0.0261
-8.1475,-1.4317,1.7765,0.0773,-0.2435,0.024
-8.8801,-1.3671,1.6017,0.0546,-0.0797,0.0213
-9.2536,-1.2139,1.4461,0.0112,0.1148,0.0234
-9.481,-1.1612,1.6089,-0.0245,0.3054,0.0155
-9.0549,-1.2665,1.5395,-0.069,0.4245,0.0005
-8.6383,-1.3312,1.5802,-0.1295,0.4439,-0.0133
-8.3869,-1.4389,1.5826,-0.2028,0.368,-0.0288
-8.6574,-1.4533,1.6783,-0.2657,0.2667,-0.0477
-8.7197,-1.3312,1.1061,-0.3488,0.1545,-0.0658
-8.8705,-1.075,0.3903,-0.4106,0.0354,-0.0855
-9.6175,-0.9505,0.103,-0.4418,-0.0634,-0.1159
-9.9695,-1.1325,0.4453,-0.4711,-0.1431,-0.142
-10.0173,-1.4317,0.8882,-0.5009,-0.194,-0.1684
-9.7947,-1.6927,1.2737,-0.547,-0.2302,-0.202
-9.6438,-1.9201,1.5083,-0.6003,-0.2638,-0.227
-9.4427,-2.0351,1.4126,-0.6499,-0.2675,-0.2419
-9.1842,-1.9824,1.2186,-0.6771,-0.2489,-0.2545
-9.0573,-1.913,0.838,-0.6901,-0.2252,-0.2457
-8.928,-1.731,0.3352,-0.684,-0.1836,-0.2286
-8.8873,-1.5658,-0.2274,-0.6606,-0.142,-0.2118
-8.849,-1.4533,-0.6656,-0.6195,-0.0911,-0.1769
-8.9423,-1.3264,-0.9625,-0.5748,-0.0261,-0.1346
-9.1459,-1.3599,-1.1779,-0.538,0.0357,-0.1021
-9.1195,-1.3958,-1.3671,-0.5063,0.0866,-0.0687
-9.2249,-1.3408,-1.4748,-0.4855,0.1292,-0.0349
-9.153,-1.3862,-1.6281,-0.4692,0.1681,-0.0104
-9.3087,-1.5706,-1.6496,-0.4607,0.203,0.0211
-9.4643,-1.8364,-1.3934,-0.4791,0.1783,0.0453
-9.3948,-2.059,-1.2354,-0.5279,0.154,0.065
-9.6462,-2.1524,-1.4174,-0.5798,0.1415,0.0855
-10.058,-2.5307,-1.3671,-0.7288,-0.0357,0.0834
-9.3853,-2.7653,0.3879,-0.906,-0.2393,0.0544
-9.1842,-2.6025,1.9968,-0.951,-0.2081,0.0354
-9.493,-2.4708,2.8683,-0.9028,-0.0879,0.0035
-9.7276,-2.4588,3.0742,-0.8308,0.0184,-0.0592
-9.8857,-2.387,2.885,-0.7709,0.1354,-0.0986
-9.7731,-2.2362,2.4612,-0.7456,0.2292,-0.1143
-9.6127,-2.0039,1.6017,-0.7168,0.3688,-0.1146
-9.4332,-1.6831,0.5076,-0.6707,0.494,-0.1047
-9.1794,-1.482,-0.5435,-0.5985,0.5801,-0.0765
-8.7724,-1.4006,-1.5155,-0.5012,0.6491,-0.0624
-8.4659,-1.3862,-2.0782,-0.3962,0.6952,-0.0464
-8.2887,-1.4341,-2.5546,-0.2918,0.7264,-0.0224
-8.2528,-1.5251,-2.9137,-0.1735,0.744,0.0016
-8.4228,-1.6065,-3.2585,-0.0823,0.7309,0.0226
-8.4659,-1.8268,-3.1891,-0.0349,0.6496,0.0509
-8.4084,-1.9441,-2.6432,-0.0266,0.5692,0.0719
-8.4803,-2.0159,-1.9609,-0.0139,0.5497,0.1151
-8.9998,-1.9297,-1.5395,-0.0181,0.559,0.1492
-9.414,-2.1644,-1.245,-0.0544,0.5388,0.1604
-9.5098,-2.2075,-0.9194,-0.1005,0.4914,0.1346
-9.572,-2.0446,-0.8308,-0.1548,0.4375,0.0858
-9.4332,-1.8651,-0.9457,-0.1887,0.3746,0.0813
-9.5648,-1.7166,-1.3934,-0.1903,0.3038,0.1156
-9.6678,-1.7621,-1.6257,-0.2108,0.1705,0.1404
-9.177,-1.8818,-0.9577,-0.2529,0.0083,0.154
-8.5377,-1.8507,-0.249,-0.2888,-0.036,0.1833
-8.3989,-1.5945,-0.0168,-0.2633,0.0994,0.1159
-8.7245,-1.6592,-0.4262,-0.1719,0.1194,0.1053
-8.3749,-1.7286,-0.0622,-0.0965,0.109,0.158
-8.4132,-1.8914,0.4046,-0.0791,0.1956,0.1354
-8.5856,-1.9441,0.4621,-0.1085,0.255,0.1082
-8.6766,-1.9106,0.3807,-0.1609,0.34,0.093
-8.9232,-1.8914,0.067,-0.1919,0.4791,0.0783
-9.1387,-1.8172,-0.3496,-0.1841,0.6105,0.077
-9.3805,-1.6975,-0.5052,-0.1527,0.7421,0.0653
-9.5122,-1.6616,-0.8164,-0.1108,0.8172,0.0333
-9.3613,-1.6568,-1.1253,-0.0743,0.8737,0.0053
-9.2009,-1.7693,-1.5538,-0.0437,0.918,-0.0053
-9.0237,-1.7597,-1.8818,-0.0093,0.899,-0.0091
-8.7173,-1.7861,-2.0063,0.016,0.8335,-0.0109
-8.8011,-1.7526,-2.0494,0.0264,0.7402,-0.0043
-8.8083,-1.7262,-1.8627,0.0266,0.623,-0.0013
-9.1794,-1.7023,-1.6257,0.0402,0.5119,0.0045
-9.6319,-1.5323,-1.5227,0.0211,0.3038,0.0144
-9.7707,-1.585,-1.3384,-0.0413,0.105,0.0296
-9.742,-1.6616,-1.2474,-0.0853,0.0536,0.0408
-9.912,-1.6281,-1.2617,-0.0757,0.097,0.0384
-9.7013,-1.5778,-1.3623,-0.077,0.1308,0.0448
-9.2368,-1.6065,-1.4485,-0.1045,0.1569,0.0666
-8.8585,-1.64,-1.5802,-0.1234,0.1905,0.0927
-8.497,-1.5826,-1.8268,-0.1218,0.2049,0.1074
-8.2241,-1.5634,-1.9561,-0.1042,0.2473,0.1162
-8.2959,-1.4916,-2.071,-0.0767,0.2673,0.1204
-8.3103,-1.4724,-2.1356,-0.0424,0.2337,0.1212
-8.2241,-1.4844,-2.0806,-0.0011,0.2028,0.1098
-8.2265,-1.5443,-1.9465,0.0424,0.1825,0.0951
-8.272,-1.6161,-1.7861,0.0754,0.1585,0.0773
-8.3677,-1.6951,-1.6089,0.0845,0.1332,0.0602
-8.6048,-1.7573,-1.4509,0.0706,0.1039,0.0381
-8.8849,-1.7621,-1.257,0.0525,0.0789,0.0149
-9.2033,-1.7454,-1.0175,0.0394,0.0562,0.0048
-9.4667,-1.6496,-0.8787,0.0242,0.0618,-0.0069
-9.6606,-1.5921,-0.8667,0.0085,0.1047,-0.0155
-9.7252,-1.5036,-0.929,-0.0056,0.1657,-0.0179
-9.5409,-1.5012,-1.0343,-0.0104,0.2233,-0.0131
-9.244,-1.5467,-1.3192,-0.0123,0.2761,-0.0096
-9.0764,-1.5826,-1.5993,-0.0133,0.3104,-0.0091
-8.9447,-1.6281,-1.6879,-0.0083,0.3051,-0.0115
-8.8825,-1.5586,-1.834,-0.0091,0.2795,-0.0211
-8.8178,-1.5826,-2.1356,-0.0075,0.2649,-0.0237
-8.8945,-1.5826,-2.32,0.0035,0.2505,-0.0234
-8.8107,-1.561,-2.308,0.0277,0.215,-0.0232
-8.7652,-1.5778,-2.2936,0.0469,0.1721,-0.0245
-8.7101,-1.6041,-2.162,0.0632,0.1282,-0.0234
-8.7867,-1.6424,-2.0423,0.0695,0.0781,-0.0242
-8.8346,-1.6688,-1.8364,0.0605,0.0147,-0.0213
-8.8992,-1.652,-1.6233,0.0493,-0.0187,-0.0195
-9.0956,-1.6305,-1.3791,0.0365,-0.0389,-0.0203
-9.256,-1.6735,-1.233,0.0189,-0.0544,-0.0136
-9.3374,-1.7382,-1.1636,0.0056,-0.0557,-0.0064
-9.3972,-1.6903,-1.245,-0.0029,-0.0261,-0.0029
-9.4595,-1.6448,-1.245,-0.0149,0.0021,-0.0013
-9.5409,-1.6664,-1.221,-0.0304,0.0248,0.0005
-9.4427,-1.6879,-1.2809,-0.037,0.0504,-0.0037
-9.4092,-1.743,-1.3384,-0.041,0.0914,-0.0165
-9.2225,-1.7119,-1.6592,-0.0322,0.1108,-0.0261
-9.0668,-1.6448,-1.7741,-0.0269,0.1308,-0.0312
-8.9854,-1.5826,-1.7885,-0.0192,0.1388,-0.0368
-8.8873,-1.5467,-1.8866,-0.0016,0.1263,-0.0402
-8.8131,-1.5395,-1.9345,0.0141,0.1135,-0.045
-8.7915,-1.4581,-2.0279,0.0269,0.089,-0.0525
-8.7293,-1.5155,-2.0279,0.0448,0.0632,-0.0472
-8.6622,-1.6233,-1.9824,0.0546,0.0296,-0.0408
-8.7005,-1.6233,-1.9058,0.0557,-0.0088,-0.033
-8.7891,-1.6592,-1.8244,0.0461,-0.0525,-0.032
-8.8945,-1.6999,-1.7286,0.0269,-0.0805,-0.0296
-8.9639,-1.6831,-1.5921,0.0112,-0.0909,-0.0272
-9.0501,-1.6783,-1.5467,-0.0016,-0.1005,-0.0218
-9.019,-1.6735,-1.4724,-0.0171,-0.0989,-0.0208
-9.0597,-1.6616,-1.3384,-0.028,-0.0866,-0.0197
-9.1195,-1.6568,-1.3527,-0.0322,-0.0738,-0.0304
-9.256,-1.6664,-1.3024,-0.0264,-0.0562,-0.0416
-9.3182,-1.6735,-1.3623,-0.0197,-0.0517,-0.0466
-9.2847,-1.6424,-1.4461,-0.0147,-0.04,-0.0493
-9.1578,-1.6496,-1.5347,-0.0075,-0.0048,-0.0538
-9.0716,-1.6305,-1.4246,0.0053,0.0189,-0.061
-9.0237,-1.6305,-1.1564,0.0112,0.0099,-0.0698
-8.8178,-1.6807,-1.0654,0.0155,-0.028,-0.0741
-8.7652,-1.7478,-1.0271,0.0152,-0.0573,-0.0687
-8.7628,-1.7549,-1.0918,0.0008,-0.1055,-0.0616
-8.7173,-1.743,-1.2306,-0.0144,-0.1279,-0.0504
-8.9423,-1.7478,-1.2258,-0.0112,-0.1378,-0.0373
-9.3063,-1.7071,-1.0247,-0.0043,-0.2377,-0.0208
-9.3134,-1.6257,-0.5555,-0.0016,-0.332,-0.004
-9.3781,-1.731,-0.079,0.0032,-0.3206,-0.0125
-9.3518,-1.8962,0.17,0.0037,-0.2539,-0.0338
-9.2775,-2.0542,0.3591,-0.0128,-0.1801,-0.0512
-9.2273,-2.0997,0.2203,-0.048,-0.1855,-0.0626
-9.2488,-2.071,-0.1532,-0.0858,-0.3307,-0.0464
-8.9519,-1.9345,-0.3208,-0.1156,-0.4594,-0.0408
-9.0357,-1.8076,-0.4741,-0.093,-0.494,-0.0703
-9.1075,-1.7717,-0.656,-0.0488,-0.5071,-0.1292
-8.8657,-1.9178,-0.9601,-0.0216,-0.5311,-0.1537
-8.6431,-2.0039,-1.4269,-0.0405,-0.5774,-0.1498
-8.5138,-2.1165,-2.0399,-0.0821,-0.6694,-0.1391
-8.7484,-2.059,-2.2051,-0.113,-0.8175,-0.1372
-8.7508,-2.0111,-2.1548,-0.1098,-0.9382,-0.1271
-9.0764,-2.0734,-1.5443,-0.0855,-0.9278,-0.142
-9.5553,-2.1524,-0.8739,-0.0677,-0.9366,-0.1958
-9.9695,-2.3415,-0.5578,-0.117,-1.0328,-0.2465
-9.9455,-2.6624,-0.34,-0.1852,-1.1333,-0.2521
-9.8545,-2.6695,0.2251,-0.2022,-1.1021,-0.2638
-10.2017,-2.8012,0.5842,-0.2606,-0.9936,-0.3126
-9.8713,-2.8754,0.8715,-0.352,-0.9092,-0.3608
-9.8354,-2.9353,0.1724,-0.4133,-0.7605,-0.3331
-9.7947,-2.9521,-0.3855,-0.4559,-0.7618,-0.2955
-8.9064,-3.0311,-0.9768,-0.4239,-0.8439,-0.2691
-7.9272,-2.7198,-1.3455,-0.2577,-0.7266,-0.2513
-7.5393,-2.3391,-2.6169,-0.0506,-0.6438,-0.2164
-6.8115,-2.1069,-3.9385,0.1167,-0.6147,-0.1966
-6.7229,-1.7885,-3.9193,0.2494,-0.5657,-0.1316
-7.1204,-1.5658,-4.379,0.3464,-0.5454,-0.0645
-7.695,-1.3096,-4.5466,0.4359,-0.5407,-0.0453
-7.7835,-1.0199,-5.0039,0.5284,-0.5196,-0.0147
-7.9655,-0.8068,-5.363,0.6344,-0.3925,0.0498
-8.2672,-0.6776,-4.9321,0.7384,-0.3373,0.1034
-8.43,-0.7781,-4.628,0.8124,-0.2446,0.1503
-8.8729,-1.0965,-3.7541,0.9068,-0.1282,0.1772
-8.8155,-0.8212,-2.6887,0.9262,-0.0903,0.2233
-8.8442,-1.2402,-2.3559,0.8516,-0.0818,0.2569
-8.6742,-1.5921,-1.5682,0.8178,-0.0989,0.283
-9.0597,-1.4844,-0.7757,0.8127,-0.1274,0.3355
-9.4068,-1.7262,-0.8164,0.8423,-0.1034,0.3528
-9.9982,-1.6209,-0.4453,0.8553,-0.1284,0.3437
-9.7564,-1.6305,-0.6201,0.854,-0.1575,0.3147
-9.6558,-1.3479,-0.5722,0.8601,-0.1865,0.2513
-9.153,-1.6328,-0.7326,0.8521,-0.2918,0.2169
-8.2744,-1.5634,-0.589,0.8415,-0.3941,0.1735
-8.1547,-1.47,-0.7446,0.8084,-0.4636,0.1596
-8.521,-1.3384,-1.0511,0.8202,-0.4911,0.1639
-8.9423,-1.1779,-0.9601,0.841,-0.4834,0.1577
-8.9615,-1.2139,-1.087,0.7962,-0.4141,0.1506
-9.0261,-1.336,-0.9433,0.7866,-0.3288,0.1748
-8.8178,-1.4772,-0.6369,0.7877,-0.2609,0.1961
-8.7197,-1.585,-0.2251,0.7629,-0.2084,0.2153
-8.9543,-1.585,-0.0599,0.6981,-0.1735,0.2233
-9.3685,-1.4365,-0.0383,0.6376,-0.1548,0.2236
-9.5936,-1.4174,0.1221,0.5788,-0.1657,0.2129
-9.5433,-1.3958,0.3184,0.5209,-0.1849,0.1993
-9.505,-1.5706,0.7087,0.4826,-0.2467,0.1839
-9.1506,-1.7358,0.9601,0.4239,-0.3475,0.1519
-9.1051,-1.6999,0.9888,0.3403,-0.4522,0.1148
-9.3877,-1.4653,0.8691,0.2689,-0.5383,0.0794
-9.6486,-1.2761,0.6153,0.2286,-0.5873,0.0474
-9.596,-1.1301,0.4501,0.2009,-0.5971,0.0101
-9.3829,-1.0965,0.4477,0.1705,-0.5958,-0.0221
-9.0525,-1.1277,0.6129,0.1519,-0.5596,-0.0405
-8.8921,-1.2019,0.6967,0.1204,-0.5002,-0.0464
-8.8083,-1.1851,0.9242,0.093,-0.4061,-0.0442
-8.837,-1.2785,1.166,0.0655,-0.3134,-0.0378
-8.8753,-1.4485,1.5227,0.0536,-0.1764,-0.0261
-8.9256,-1.6352,1.8052,0.0256,-0.0432,-0.0149
-8.7508,-1.7023,1.8387,-0.0107,0.0541,-0.0109
-8.6383,-1.6831,1.7023,-0.0424,0.1242,-0.0173
-8.6598,-1.5658,1.4269,-0.0493,0.1775,-0.0306
-8.8777,-1.4748,1.0367,-0.0496,0.2228,-0.041
-8.9807,-1.4748,0.7925,-0.0434,0.2633,-0.045
-9.0764,-1.5227,0.4621,-0.0509,0.2859,-0.0445
-9.1961,-1.5897,0.431,-0.0738,0.2928,-0.0413
-9.2129,-1.5107,0.4884,-0.0922,0.2739,-0.041
-9.2895,-1.5443,0.5076,-0.1077,0.2337,-0.0461
-9.3925,-1.5323,0.5435,-0.1364,0.1657,-0.0573
-9.4571,-1.4341,0.3998,-0.1687,0.0877,-0.0706
-9.4379,-1.2522,0.1652,-0.2062,-0.0045,-0.0847
-9.1842,-1.0894,-0.0886,-0.2353,-0.1066,-0.0957
-8.904,-0.9768,-0.2514,-0.2467,-0.1873,-0.0938
-8.8442,-1.0271,-0.3615,-0.2566,-0.2561,-0.0834
-8.8322,-1.1899,-0.498,-0.283,-0.3285,-0.0663
-8.8825,-1.3575,-0.5076,-0.3267,-0.4186,-0.0469
-8.7532,-1.5706,-0.079,-0.3749,-0.5111,-0.025
-8.5832,-1.6759,0.1939,-0.4061,-0.5454,-0.0032
-8.6862,-1.8938,0.6177,-0.4167,-0.5694,0.0069
-8.8849,-1.9968,0.8284,-0.4277,-0.5953,0.0016
-8.9184,-2.1668,0.7183,-0.4469,-0.6267,0.0064
-8.7388,-2.2745,0.8619,-0.4631,-0.6579,0.0011
-8.6167,-2.1931,0.9002,-0.4903,-0.668,-0.0099
-8.7269,-2.0542,0.7877,-0.5111,-0.6659,-0.0192
-8.7819,-1.8627,0.8068,-0.4916,-0.632,-0.0171
-8.8202,-1.8052,0.6201,-0.4519,-0.5385,-0.0179
-8.916,-1.719,0.4836,-0.4013,-0.4266,-0.0221
-9.0549,-1.7573,0.2011,-0.3683,-0.3131,-0.0234
-8.9878,-1.8483,0.0407,-0.3754,-0.2166,-0.0221
-8.9663,-1.834,-0.091,-0.3824,-0.0983,-0.0163
-9.074,-1.8364,-0.3472,-0.3762,0.0104,0.0
-9.4978,-1.9441,-0.5363,-0.3962,0.0637,0.0141
-9.517,-2.083,-0.0838,-0.4634,0.0791,0.0115
-9.4739,-2.0375,0.4501,-0.5044,0.2313,-0.0045
-9.7133,-2.0087,0.8164,-0.4938,0.4162,-0.0136
-9.8019,-1.9872,0.7374,-0.4839,0.6193,-0.0189
-10.0269,-2.241,1.0295,-0.554,0.7322,-0.0501
-9.6822,-2.3152,1.6544,-0.6398,0.7951,-0.0949
-9.6845,-2.1835,2.1189,-0.6582,0.882,-0.1175
-9.8545,-2.0183,2.1835,-0.6273,0.8897,-0.1348
-9.809,-2.0231,1.8459,-0.603,0.8807,-0.1601
-9.6774,-1.9417,1.5467,-0.582,0.8583,-0.1919
-9.481,-1.9321,1.1588,-0.5311,0.7669,-0.1924
-8.6646,-1.7334,0.5028,-0.482,0.6576,-0.1466
-8.3701,-1.6448,-0.2011,-0.4343,0.6363,-0.1143
-8.406,-1.561,-0.917,-0.3525,0.5548,-0.064
-8.1906,-1.5754,-1.3623,-0.2809,0.4604,-0.016
-8.2361,-1.6017,-1.8028,-0.2148,0.4202,0.0133
-8.4132,-1.6568,-2.2865,-0.1543,0.3741,0.0426
-8.521,-1.7693,-2.3607,-0.1029,0.3144,0.0802
-8.6622,-1.8435,-2.2936,-0.0573,0.2753,0.1151
-8.7484,-1.9537,-1.9992,-0.0378,0.2366,0.1378
-8.849,-2.1117,-1.664,-0.0373,0.238,0.1745
-9.2201,-2.1763,-1.3479,-0.0642,0.2689,0.1889
-9.7348,-2.3415,-0.8787,-0.1474,0.2441,0.1812
-9.8952,-2.411,0.1437,-0.2553,0.1455,0.1615
-9.754,-2.2745,1.2665,-0.312,0.1156,0.1348
-9.7348,-2.0494,1.7142,-0.3144,0.2313,0.0978
-10.0509,-1.9561,1.9393,-0.3064,0.38,0.0597
-10.1562,-1.9824,2.0566,-0.3299,0.4879,0.0322
-9.9072,-2.0662,2.0327,-0.3888,0.5809,-0.0016
-9.5672,-1.9752,1.7645,-0.4618,0.7091,-0.0317
-9.335,-1.9848,1.0822,-0.5148,0.8431,-0.0253
-9.1028,-1.6424,0.2203,-0.4996,0.9526,-0.0536
-8.6981,-1.4868,-0.3615,-0.4583,0.971,-0.0655
-8.2863,-1.494,-0.8164,-0.3808,0.995,-0.0592
-8.2576,-1.6041,-1.2426,-0.2955,0.9763,-0.0693
-8.2073,-1.7813,-1.5514,-0.2414,0.8799,-0.085
-8.0254,-1.8986,-1.6759,-0.1988,0.7842,-0.1053
-8.169,-1.9513,-1.6735,-0.1636,0.6864,-0.11
-8.3749,-1.9776,-1.5203,-0.1551,0.5641,-0.1095
-8.6,-2.0375,-1.4964,-0.1687,0.4756,-0.1053
-8.9376,-2.0973,-1.7286,-0.1908,0.3784,-0.089
-9.0644,-2.0255,-1.6568,-0.2116,0.2923,-0.0783
-9.2392,-1.9417,-1.5658,-0.2238,0.23,-0.0855
-9.3996,-1.8986,-1.4006,-0.222,0.1692,-0.085
-9.4523,-1.8172,-1.1229,-0.2174,0.113,-0.0869
-9.323,-1.834,-1.0056,-0.2198,0.0965,-0.0797
-9.1985,-1.8603,-1.2809,-0.2276,0.1146,-0.0586
-8.9878,-1.8268,-1.5036,-0.2441,0.1364,-0.0274
-8.8466,-1.8555,-1.7166,-0.2587,0.1615,-0.0067
-8.7221,-1.7669,-2.0375,-0.255,0.2102,0.0037
-8.6766,-1.7023,-2.3487,-0.2388,0.226,0.0075
-8.5593,-1.6424,-2.3439,-0.203,0.2268,0.0184
-8.5018,-1.6113,-2.2984,-0.1625,0.2246,0.0229
-8.4731,-1.6209,-2.2577,-0.1204,0.2164,0.0221
-8.4013,-1.6688,-2.2697,-0.0885,0.2156,0.0141
-8.4563,-1.7238,-2.241,-0.0658,0.2326,0.0072
-8.4515,-1.7526,-2.1452,-0.041,0.2372,0.0037
-8.5832,-1.81,-1.9249,-0.025,0.2257,-0.0021
-8.6072,-1.7909,-1.7549,-0.0226,0.1951,-0.0093
-8.7149,-1.798,-1.7071,-0.0258,0.1839,-0.0168
-8.8322,-1.7933,-1.64,-0.0272,0.1996,-0.0224
-9.1913,-1.7741,-1.5514,-0.0149,0.223,-0.0192
-9.3925,-1.7095,-1.4796,-0.0064,0.2126,-0.0099
-9.4715,-1.6951,-1.4868,-0.0125,0.21,-0.0032
-9.5265,-1.7262,-1.4533,-0.0274,0.2265,-0.0069
-9.3709,-1.7526,-1.6089,-0.0533,0.247,-0.0088
-9.1482,-1.731,-1.7286,-0.0781,0.2686,-0.0035
-8.9639,-1.6831,-1.7909,-0.089,0.2718,0.0021
-8.8011,-1.6424,-1.9417,-0.0877,0.2622,0.0077
-8.6191,-1.5682,-2.0087,-0.0759,0.2398,0.0131
-8.4228,-1.5443,-2.0949,-0.0557,0.2257,0.0187
-8.4276,-1.5203,-2.0877,-0.0314,0.2049,0.0216
-8.3725,-1.561,-2.2146,-0.0069,0.1681,0.0264
-8.3246,-1.6089,-2.1308,0.0125,0.1151,0.0344
-8.3318,-1.6783,-2.0614,0.0248,0.0661,0.0346
-8.3941,-1.7454,-2.0303,0.032,0.0168,0.0304
-8.4851,-1.7669,-1.9537,0.0317,-0.0208,0.0341
-8.5856,-1.7621,-1.889,0.0285,-0.0514,0.0386
-8.7317,-1.889,-1.8675,0.0266,-0.0727,0.041
-8.8274,-1.8531,-1.8292,0.0232,-0.081,0.04
-8.8418,-1.8411,-1.8794,0.025,-0.0855,0.0442
-8.9591,-1.8483,-1.9082,0.029,-0.0765,0.0466
-9.0261,-1.8603,-1.968,0.0261,-0.0669,0.0472
-9.0621,-1.8555,-1.9058,0.0237,-0.0522,0.045
-9.0261,-1.7789,-1.822,0.028,-0.0192,0.0402
-9.007,-1.7478,-1.8818,0.032,0.0101,0.0296
-8.9232,-1.7334,-1.9154,0.0469,0.0256,0.0274
-8.8131,-1.7286,-2.0135,0.0637,0.0381,0.0301
-8.7293,-1.7358,-2.2314,0.0765,0.0482,0.0325
-8.6814,-1.7454,-2.2745,0.0855,0.0405,0.0333
-8.588,-1.6927,-2.2936,0.0997,0.0256,0.0338
-8.5329,-1.6568,-2.296,0.1164,0.0104,0.0386
-8.5832,-1.6831,-2.1859,0.1372,-0.0085,0.0453
-8.6024,-1.7166,-2.0734,0.1516,-0.0354,0.0504
-8.6239,-1.822,-1.9273,0.1543,-0.0642,0.0525
-8.6766,-1.7957,-1.8172,0.149,-0.0839,0.0616
-8.7676,-1.7933,-1.6831,0.1484,-0.1015,0.065
-8.8346,-1.7693,-1.5323,0.1476,-0.1151,0.064
-8.9663,-1.6712,-1.3503,0.1474,-0.1218,0.057
-9.0525,-1.7549,-1.2234,0.1519,-0.1178,0.0552
-8.8969,-1.8124,-1.2522,0.1516,-0.0927,0.0578
-9.0525,-1.8196,-1.0104,0.1447,-0.0703,0.0634
-8.9902,-1.8148,-0.9337,0.1295,-0.0834,0.0642
-9.0692,-1.7885,-0.747,0.1191,-0.0701,0.0584
-9.086,-1.7526,-0.486,0.1183,-0.0866,0.0501
-9.0644,-1.8531,-0.2729,0.1202,-0.073,0.0429
-9.0573,-1.8603,-0.1269,0.1151,-0.0821,0.029
-9.0812,-1.8531,-0.0551,0.1199,-0.0746,0.0181
-9.1195,-1.889,-0.1676,0.1199,-0.105,0.0171
-9.1459,-1.9345,-0.4142,0.1058,-0.1721,0.0176
-9.1889,-1.8531,-0.3711,0.0922,-0.2755,0.0176
-9.1195,-1.8076,-0.316,0.0949,-0.3509,0.0192
-9.1794,-1.8244,-0.2011,0.1055,-0.3667,0.0019
-9.1363,-2.0279,-0.1293,0.1186,-0.3778,-0.0258
-9.0094,-2.1308,-0.1844,0.1127,-0.4114,-0.0349
-8.8801,-2.217,-0.3519,0.0893,-0.4788,-0.04
-8.8801,-2.162,-0.5986,0.073,-0.5705,-0.0576
-8.9998,-2.1284,-0.7733,0.0658,-0.664,-0.0616
-9.1961,-2.2314,-0.6105,0.061,-0.7834,-0.0253
-9.2775,-2.2386,0.0287,0.0642,-0.8367,-0.0232
-9.3374,-2.3918,0.735,0.0493,-0.7837,-0.0882
-9.6247,-2.5522,1.0415,0.0365,-0.6931,-0.1687
-9.7588,-2.6695,0.7039,-0.0043,-0.76,-0.2084
-9.3972,-2.9066,0.1245,-0.0959,-0.9188,-0.1969
-8.4779,-2.9975,-0.1317,-0.1556,-0.9196,-0.1636
-8.9878,-2.9305,-0.0192,-0.1689,-0.7807,-0.1543
-9.1818,-2.7126,-0.3687,-0.2158,-0.7453,-0.2158
-9.402,-2.9161,-1.7214,-0.3104,-0.7653,-0.231
-9.3996,-2.9473,-2.66,-0.307,-0.9078,-0.1812
-8.7412,-2.7031,-2.6791,-0.1308,-0.9438,-0.1372
-8.3653,-2.4924,-2.7054,0.1964,-0.7903,-0.1199
-8.4132,-2.4445,-2.9975,0.4322,-0.5982,-0.0965
-8.576,-2.4924,-3.6823,0.5092,-0.5486,-0.0442
-8.4491,-2.3391,-4.2186,0.5446,-0.5305,-0.0083
-8.2648,-1.9968,-4.4077,0.6336,-0.5348,0.0416
-7.9176,-1.5131,-4.2329,0.7077,-0.4946,0.0645
-8.4443,-1.0894,-4.312,0.8156,-0.4357,0.1151
-8.6191,-0.6177,-4.6112,0.9534,-0.4439,0.1556
-8.6862,-0.4238,-4.4077,1.0075,-0.4578,0.1673
-8.77,-0.4669,-4.2904,1.0565,-0.5119,0.2108
-8.9471,-0.5986,-3.8834,1.1061,-0.5073,0.275
-8.8466,-0.8906,-3.0861,1.1628,-0.3669,0.3299
-9.5744,-1.1061,-2.2505,1.2103,-0.2627,0.4064
-9.4547,-1.5251,-1.5299,1.2329,-0.3014,0.4303
-9.0022,-1.5897,-0.7925,1.17,-0.4199,0.4271
-8.9136,-1.6257,-0.3065,1.0496,-0.5873,0.4098
-8.8657,-1.5514,-0.3591,0.9593,-0.7136,0.3749
-9.2273,-1.4509,-0.316,0.9361,-0.8119,0.3344
-9.1004,-1.2737,-0.328,0.9222,-0.8708,0.3016
-9.2703,-1.2043,-0.4669,0.9022,-0.8892,0.2761
-8.9328,-1.1684,-0.2466,0.8956,-0.9225,0.2425
-8.6311,-1.1325,-0.2777,0.8623,-0.9387,0.2236
-8.7963,-0.929,-0.34,0.8601,-0.9209,0.2244
-9.0597,-0.8859,-0.4836,0.8756,-0.854,0.2358
-9.2009,-0.9122,-0.4884,0.8615,-0.7613,0.2345
-9.1411,-0.8188,-0.3089,0.8346,-0.6496,0.2361
-9.0166,-0.7757,0.0024,0.8103,-0.575,0.2329
-9.1339,-0.7207,0.3352,0.7853,-0.5321,0.243
-9.1937,-0.7733,0.395,0.7421,-0.4954,0.2513
-9.6295,-0.7757,0.6752,0.6803,-0.461,0.2515
-10.2256,-0.9194,1.1349,0.6198,-0.4666,0.2587
-10.2759,-1.2546,1.9585,0.562,-0.4698,0.2411
-10.0365,-1.5036,2.5139,0.4572,-0.4898,0.1974
-9.6845,-1.5012,2.5331,0.3589,-0.53,0.1652
-9.323,-1.3503,2.2529,0.2899,-0.5692,0.1388
-8.77,-1.1516,2.0351,0.2449,-0.639,0.1106
-8.4228,-1.1372,2.1045,0.2118,-0.716,0.1071
-8.4563,-1.1971,2.2505,0.1977,-0.7509,0.0949
-8.6048,-1.2139,2.3343,0.1833,-0.6979,0.0645
-8.7101,-1.1684,2.217,0.1679,-0.5977,0.0485
-8.7053,-1.1301,1.9154,0.154,-0.4493,0.0496
-8.5042,-1.1779,1.6807,0.1452,-0.2846,0.049
-8.2815,-1.1205,1.4533,0.1244,-0.1162,0.0456
-8.3175,-1.0798,1.221,0.1172,0.0296,0.0586
-8.4563,-1.1301,1.2977,0.1156,0.1649,0.0679
-8.7652,-1.324,1.2546,0.1061,0.263,0.0706
-8.8705,-1.4222,1.2857,0.081,0.3107,0.0645
-9.0908,-1.4605,1.3096,0.0546,0.3291,0.0552
-9.3446,-1.506,1.312,0.0282,0.3477,0.0408
-9.6103,-1.5155,1.221,-0.0003,0.3467,0.0242
-9.7109,-1.5419,1.1995,-0.0306,0.3381,0.0171
-9.8019,-1.5323,1.1229,-0.0536,0.3203,0.0133
-9.7899,-1.5275,1.1875,-0.0813,0.2587,0.004
-9.7779,-1.6257,1.2498,-0.1263,0.1748,-0.0035
-9.7157,-1.7142,1.3551,-0.1783,0.0597,-0.0155
-9.4475,-1.7502,1.5443,-0.2201,-0.0469,-0.0341
-9.2464,-1.7382,1.6185,-0.2662,-0.1657,-0.0552
-9.1147,-1.6903,1.549,-0.3054,-0.2662,-0.073
-9.019,-1.5299,1.3743,-0.3339,-0.3541,-0.0975
-8.9687,-1.3503,1.2258,-0.3611,-0.4122,-0.114
-8.8011,-1.2809,0.8212,-0.3725,-0.4333,-0.1266
-8.5904,-1.1875,0.5555,-0.3744,-0.4135,-0.1271
-8.5449,-1.0654,0.2682,-0.3608,-0.3496,-0.1103
-8.5425,-1.008,0.0934,-0.3307,-0.2723,-0.0847
-8.509,-0.9912,-0.012,-0.2939,-0.1847,-0.053
-8.6191,-1.0511,-0.0862,-0.2606,-0.0941,-0.0256
-8.8514,-1.2546,-0.1053,-0.2473,-0.0141,0.0021
-9.1171,-1.3455,-0.1173,-0.2651,0.0554,0.0277
-9.4691,-1.4772,-0.1796,-0.3067,0.1071,0.0416
-9.7205,-1.6041,-0.0024,-0.3621,0.1423,0.044
-9.7564,-1.7214,0.7039,-0.4271,0.1484,0.0392
-9.8976,-1.8555,1.0151,-0.457,0.2526,0.0325
-9.9934,-1.8986,1.3791,-0.4562,0.3629,0.0152
-9.9455,-2.059,1.5371,-0.4764,0.4008,-0.0131
-9.4643,-2.2027,1.7478,-0.5225,0.3901,-0.037
-9.165,-2.0686,1.9465,-0.5598,0.3693,-0.0568
-9.0764,-1.8364,1.7741,-0.5766,0.3464,-0.0581
-9.0956,-1.6855,1.312,-0.5849,0.3293,-0.0642
-9.0357,-1.5203,0.8595,-0.586,0.3291,-0.0794
-9.074,-1.3623,0.4357,-0.5628,0.3336,-0.0842
-8.7317,-1.2617,-0.0168,-0.5215,0.34,-0.0871
-8.5162,-1.1684,-0.2658,-0.4604,0.3914,-0.0778
-8.6167,-1.1612,-0.5315,-0.3845,0.4429,-0.0573
-8.7245,-1.3312,-0.7135,-0.3203,0.5028,-0.0322
-8.77,-1.4605,-0.8308,-0.2678,0.5939,-0.0149
-8.825,-1.5562,-0.984,-0.2292,0.7152,0.0067
-8.9447,-1.6735,-1.2139,-0.1966,0.8394,0.0256
-9.1746,-1.9321,-1.2043,-0.2257,0.8945,0.029
-9.2608,-2.1165,-0.4669,-0.2947,0.8724,-0.0104
-9.3733,-2.1356,0.2083,-0.3483,0.833,-0.0341
-9.5864,-2.0758,0.8356,-0.3845,0.8231,-0.04
-9.9024,-2.1428,1.4102,-0.4024,0.8322,-0.0461
-9.9575,-2.1668,1.8579,-0.3968,0.8777,-0.0613
-9.4786,-2.2098,1.8076,-0.388,0.9462,-0.0661
-9.2656,-2.1859,1.6376,-0.3509,1.0323,-0.0043
-9.177,-1.992,1.1133,-0.3531,0.9579,0.0187
-8.5569,-1.6616,0.7805,-0.3944,0.894,-0.0424
-8.2384,-1.5538,0.1317,-0.3728,0.7711,-0.033
-7.4819,-1.2402,-0.0239,-0.3072,0.644,0.032
-7.343,-1.0558,-0.7494,-0.2348,0.5726,0.048
-7.5034,-1.0175,-1.312,-0.1468,0.4572,0.0474
-7.5609,-1.2067,-1.4389,-0.0586,0.3144,0.0608
-7.6303,-1.4413,-1.3982,0.0218,0.2153,0.0514
-8.0182,-1.5874,-1.4102,0.0738,0.1636,0.0514
-8.5473,-1.8914,-1.5897,0.0789,0.1271,0.0693
-8.9854,-2.0806,-1.3575,0.0514,0.105,0.073
-9.4595,-2.2146,-0.7446,-0.0067,0.1005,0.0426
-9.8785,-2.1548,0.0503,-0.0794,0.1236,-0.0072
-10.1754,-2.0925,0.3735,-0.1338,0.2046,-0.04
-10.4363,-1.9824,0.5243,-0.1503,0.3368,-0.0602
-10.4052,-1.9585,0.4932,-0.1679,0.481,-0.0669
-10.1801,-1.9082,0.3496,-0.1945,0.6376,-0.0722
-9.7636,-1.7669,0.0646,-0.2324,0.7674,-0.0714
-9.3948,-1.64,-0.3831,-0.2518,0.8639,-0.0552
-9.074,-1.4581,-0.5578,-0.2585,0.9169,-0.0424
-8.6981,-1.4006,-0.7398,-0.2574,0.9332,-0.0392
-8.4803,-1.4006,-1.0918,-0.2446,0.9073,-0.0248
-8.3007,-1.4389,-1.2617,-0.2174,0.8367,-0.0037
-8.1666,-1.4509,-1.4509,-0.1841,0.756,0.0195
-8.1092,-1.4676,-1.5826,-0.1383,0.6845,0.0322
-8.2983,-1.5131,-1.4916,-0.1132,0.5993,0.0442
-8.4515,-1.6161,-1.5107,-0.0991,0.4794,0.0581
-8.5593,-1.6831,-1.6041,-0.0855,0.3552,0.0674
-8.6383,-1.6999,-1.6305,-0.0669,0.2369,0.0655
-8.6622,-1.6496,-1.5203,-0.048,0.1378,0.0573
-8.7245,-1.5945,-1.2809,-0.0429,0.0759,0.0469
-8.8873,-1.573,-1.1181,-0.0448,0.0373,0.045
-9.0884,-1.6017,-1.0104,-0.0424,0.0107,0.0429
-9.1602,-1.573,-0.9026,-0.0525,-0.0072,0.0282
-9.2799,-1.5993,-0.9026,-0.0722,-0.0115,0.0197
-9.5433,-1.6017,-0.7374,-0.0906,-0.0021,0.0165
-9.6007,-1.6257,-0.8523,-0.1124,0.0088,0.0133
-9.7061,-1.6137,-1.0463,-0.1303,0.0584,0.0067
-9.6965,-1.5897,-1.1085,-0.1362,0.1042,-0.0013
-9.7037,-1.5419,-1.1612,-0.1362,0.1745,-0.0109
-9.5098,-1.4964,-1.4964,-0.1239,0.243,-0.0101
-9.2608,-1.4724,-1.7214,-0.0973,0.292,-0.0016
-8.9591,-1.482,-1.8387,-0.0682,0.3357,0.0051
-8.8442,-1.506,-1.9321,-0.0376,0.3416,0.0091
-8.6239,-1.5275,-1.9513,-0.0035,0.3008,0.0192
-8.5688,-1.5251,-1.9992,0.0155,0.2534,0.0242
-8.6598,-1.5514,-1.8938,0.0197,0.1897,0.0253
-8.6981,-1.5083,-1.8292,0.0234,0.1194,0.0301
-8.7747,-1.5802,-1.7933,0.0256,0.0586,0.0349
-8.837,-1.6065,-1.6688,0.0218,0.0045,0.0389
-8.9711,-1.6017,-1.4054,0.0205,-0.0485,0.037
-9.0692,-1.6089,-1.3455,0.0168,-0.0858,0.036
-9.256,-1.6855,-1.2857,0.0104,-0.0983,0.0298
-9.4667,-1.6903,-1.4054,-0.0027,-0.0938,0.0272
-9.5648,-1.6496,-1.4868,-0.0149,-0.0767,0.0277
-9.6534,-1.5945,-1.5347,-0.0224,-0.0442,0.02
-9.5984,-1.5443,-1.5419,-0.0211,-0.0213,0.0075
-9.5481,-1.4844,-1.5395,-0.0112,0.0128,-0.0016
-9.3925,-1.4916,-1.6113,0.0027,0.0306,-0.0075
-9.2536,-1.5395,-1.4868,0.0083,0.0472,-0.0165
-9.256,-1.4772,-1.3719,0.0083,0.0597,-0.0274
-9.2009,-1.5179,-1.4676,0.012,0.0679,-0.0338
-9.1435,-1.5227,-1.4892,0.0128,0.0714,-0.0341
-9.1051,-1.5251,-1.4676,0.0136,0.0714,-0.0341
-9.0692,-1.549,-1.4269,0.0181,0.0597,-0.0349
-8.9687,-1.5514,-1.4629,0.0195,0.0442,-0.0333
-8.9376,-1.549,-1.4772,0.0165,0.0434,-0.0309
-9.0118,-1.5467,-1.4222,0.0168,0.0288,-0.0282
-8.9256,-1.5299,-1.4868,0.0144,-0.0011,-0.0293
-8.9016,-1.5586,-1.5179,0.0157,-0.0229,-0.0328
-8.9495,-1.5754,-1.4676,0.0163,-0.0482,-0.0397
-9.0453,-1.5299,-1.4653,0.0171,-0.0671,-0.0458
-9.0573,-1.573,-1.4964,0.0179,-0.0738,-0.0501
-9.0453,-1.561,-1.4461,0.0195,-0.0743,-0.053
-9.0285,-1.6257,-1.4054,0.0187,-0.0634,-0.0512
-9.0573,-1.5826,-1.4653,0.025,-0.0522,-0.0496
-9.0573,-1.5945,-1.3982,0.0261,-0.0456,-0.0509
-9.0668,-1.6281,-1.4126,0.0269,-0.0237,-0.0549
-9.1028,-1.573,-1.5083,0.0261,0.0021,-0.0528
-9.0812,-1.5682,-1.415,0.0338,0.0248,-0.0496
-9.0644,-1.5419,-1.3408,0.0461,0.0501,-0.0464
-8.9974,-1.5706,-1.4198,0.0637,0.069,-0.036
-8.9399,-1.5874,-1.4054,0.0741,0.0645,-0.025
-8.8729,-1.6903,-1.4581,0.0767,0.0538,-0.0139
-8.7939,-1.652,-1.5155,0.0695,0.041,-0.0072
-8.7628,-1.6568,-1.3503,0.0677,0.0221,-0.0037
-8.7724,-1.5395,-1.2929,0.0743,-0.0027,-0.0043
-8.7412,-1.5706,-1.1013,0.0863,-0.0432,0.0032
-8.7747,-1.6328,-0.7422,0.0946,-0.0735,0.0091
-9.0333,-1.7166,-0.395,0.0895,-0.1034,-0.0037
-9.2632,-1.7765,-0.0646,0.0719,-0.1604,-0.0261
-9.4427,-1.8435,0.0551,0.0626,-0.1825,-0.045
-9.7085,-1.9178,0.2083,0.0589,-0.1745,-0.0541
-9.8689,-1.9465,0.3136,0.0421,-0.1903,-0.0648
-10.0365,-1.8507,0.5243,0.032,-0.2713,-0.065
-9.8306,-1.8435,0.8763,0.008,-0.3496,-0.0618
-9.6079,-1.9944,1.3288,-0.0131,-0.2832,-0.1098
-9.7588,-2.1955,1.6328,-0.0474,-0.2036,-0.1879
-9.5936,-2.2314,1.7166,-0.0837,-0.2774,-0.2254
-9.414,-2.2338,1.47,-0.1226,-0.461,-0.2068
-9.0214,-2.2817,1.0774,-0.1775,-0.5734,-0.1884
-9.0812,-2.3152,1.1061,-0.1996,-0.4994,-0.2329
-9.481,-2.3894,0.9936,-0.207,-0.4346,-0.3136
-9.3661,-2.3391,0.2897,-0.1937,-0.489,-0.3477
-8.7388,-2.4349,-0.6823,-0.2369,-0.6198,-0.2872
-8.0254,-2.4684,-1.2737,-0.291,-0.6747,-0.2643
-8.1068,-2.4708,-1.2617,-0.3134,-0.66,-0.2918
-8.1044,-2.5307,-1.154,-0.348,-0.6792,-0.3429
-8.1642,-2.569,-1.8531,-0.3667,-0.7341,-0.3509
-8.3294,-2.5953,-2.897,-0.373,-0.8303,-0.2854
-8.3318,-2.4636,-3.8044,-0.2326,-0.8705,-0.1887
-8.7652,-2.0039,-4.1755,0.0554,-0.7346,-0.1231
-9.7803,-1.992,-3.7206,0.2755,-0.7176,-0.0863
-9.5265,-2.332,-3.067,0.4157,-0.6829,-0.0874
-9.5457,-2.5355,-3.1508,0.4874,-0.5252,-0.0357
-9.2512,-2.4684,-3.5123,0.469,-0.332,0.033
-8.9807,-1.9465,-4.1731,0.4482,-0.1772,0.1007
-8.3462,-1.3048,-5.2481,0.4863,-0.0378,0.1609
-8.2361,-0.7159,-4.9991,0.5327,0.0208,0.1812
-7.7428,-0.3807,-4.64,0.5894,-0.0322,0.2038
-7.4101,-0.2849,-4.5753,0.6467,-0.0933,0.219
-7.6519,-0.3208,-3.9409,0.6619,-0.207,0.2166
-8.2983,-0.2442,-3.2417,0.7072,-0.3589,0.2214
-8.8418,-0.3807,-2.8635,0.7472,-0.4706,0.2174
-9.6989,-0.8811,-1.8866,0.7522,-0.4663,0.1956
-9.8737,-1.2977,-0.7901,0.7418,-0.4732,0.1913
-9.6486,-1.7765,0.0383,0.7234,-0.3888,0.1828
-9.4619,-1.7669,0.6919,0.6251,-0.2627,0.178
-9.1626,-1.8148,0.3472,0.5617,-0.1159,0.1879
-8.9639,-1.5131,0.0503,0.5359,0.0528,0.2228
-8.916,-1.1061,-0.5004,0.5513,0.1695,0.2222
-8.5473,-1.0056,-0.8835,0.579,0.2161,0.2177
-8.3175,-0.8499,-1.1205,0.587,0.2513,0.2132
-8.1283,-0.8523,-1.4461,0.5852,0.279,0.2222
-8.1379,-0.8547,-1.2953,0.5913,0.2931,0.2438
-8.0948,-0.8787,-1.166,0.5806,0.3038,0.2622
-8.0469,-0.9816,-0.9457,0.5798,0.3523,0.2835
-8.248,-1.2234,-0.5483,0.5849,0.4301,0.3166
-8.509,-1.4341,0.2897,0.5913,0.4743,0.3435
-8.6359,-1.6352,0.7326,0.5804,0.5204,0.3445
-8.7963,-1.7023,0.9409,0.5478,0.5103,0.3179
-8.8873,-1.6975,0.6895,0.5057,0.4836,0.3086
-8.8777,-1.4581,0.2203,0.4796,0.4474,0.2931
-8.9232,-1.2522,-0.3735,0.4687,0.4162,0.2883
-9.1435,-1.2474,-0.6249,0.4474,0.3349,0.2846
-9.0477,-1.2594,-0.4094,0.4098,0.2577,0.2769
-9.232,-1.3192,-0.2131,0.397,0.2028,0.2649
-9.2703,-1.3791,-0.0479,0.3746,0.1604,0.2411
-9.0381,-1.3934,-0.2466,0.3397,0.0949,0.2153
-9.0812,-1.3001,-0.2873,0.3051,0.0301,0.1943
-9.3948,-1.3072,-0.2897,0.2766,-0.0352,0.1743
-9.4715,-1.403,-0.0886,0.238,-0.1226,0.1503
-9.5146,-1.4892,0.3328,0.2102,-0.1804,0.1295
-9.4451,-1.585,0.6847,0.1729,-0.2281,0.1007
-9.3589,-1.6544,0.5986,0.1292,-0.2635,0.0714
-9.2129,-1.5538,0.3615,0.0869,-0.2963,0.0493
-9.086,-1.4126,0.0599,0.0586,-0.3147,0.0373
-9.1339,-1.2905,-0.1604,0.0405,-0.3104,0.0272
-9.2584,-1.2594,-0.2921,0.0314,-0.2838,0.0229
-9.2943,-1.2258,-0.1939,0.0277,-0.2185,0.02
-9.2009,-1.2809,-0.1173,0.028,-0.1522,0.0245
-9.3134,-1.2713,-0.0168,0.0237,-0.0706,0.0298
-9.1842,-1.257,-0.1963,0.0173,-0.0091,0.0368
-9.1866,-1.221,-0.316,0.0072,0.0338,0.0482
-9.2129,-1.221,-0.4932,-0.0085,0.0506,0.0549
-9.2895,-1.2713,-0.486,-0.0584,-0.0155,0.0437
-9.2847,-1.3862,-0.0455,-0.1346,-0.1263,0.025
-9.3015,-1.5251,0.5004,-0.1919,-0.2353,-0.004
-9.1985,-1.6257,0.9409,-0.2388,-0.3381,-0.0432
-9.2225,-1.6472,1.0295,-0.2931,-0.4362,-0.0725
-9.1698,-1.5993,0.7614,-0.3453,-0.5193,-0.0951
-9.1554,-1.4892,0.5363,-0.3832,-0.6017,-0.1087
-9.1435,-1.3288,0.3903,-0.4013,-0.6459,-0.1199
-9.2799,-1.1923,0.0718,-0.3893,-0.6488,-0.1156
-9.3948,-1.1325,-0.182,-0.3637,-0.6121,-0.0986
-9.3829,-1.1253,-0.4573,-0.3363,-0.5284,-0.0839
-9.3374,-1.1372,-0.6991,-0.3163,-0.4213,-0.0671
-9.2081,-1.1779,-0.8571,-0.296,-0.3118,-0.045
-9.1818,-1.1756,-1.0487,-0.2737,-0.1951,-0.0213
-9.232,-1.1923,-1.0439,-0.2542,-0.0757,-0.0024
-9.2608,-1.3815,-1.4653,-0.2539,0.0059,0.0099
-9.2536,-1.5179,-0.9505,-0.2739,0.0352,0.0072
-9.0046,-1.5179,-0.5363,-0.2907,0.0698,-0.0027
-9.1482,-1.5634,-0.2274,-0.296,0.1045,-0.0061
-9.3518,-1.7765,0.1628,-0.3227,0.0637,-0.0234
-9.3206,-1.81,0.6584,-0.364,0.0053,-0.0509
-9.1387,-1.7645,0.9361,-0.3994,-0.0373,-0.0775
-9.2009,-1.7047,0.9529,-0.4074,-0.0536,-0.1023
-8.9735,-1.6352,0.9673,-0.3834,-0.0983,-0.1231
-8.8322,-1.5443,0.7111,-0.3675,-0.1282,-0.1327
-8.8226,-1.506,0.2705,-0.3661,-0.1593,-0.1276
-8.7412,-1.5203,0.0407,-0.3736,-0.1756,-0.1386
-8.8969,-1.4126,0.0359,-0.368,-0.166,-0.1399
-9.1674,-1.4269,-0.2945,-0.3483,-0.1511,-0.141
-9.3302,-1.6209,-0.3543,-0.348,-0.1191,-0.1593
-9.4092,-1.6807,-0.0599,-0.3549,-0.0272,-0.1873
-9.6582,-1.652,0.0,-0.3336,0.0845,-0.2124
-9.7229,-1.7238,-0.0407,-0.2896,0.215,-0.2124
-9.8234,-1.8459,-0.1389,-0.2697,0.3605,-0.1852
-9.8497,-1.9752,-0.2466,-0.2832,0.5111,-0.1721
-9.6774,-1.8986,-0.3903,-0.3038,0.6872,-0.1668
-9.5217,-1.7526,-0.8643,-0.2902,0.8737,-0.1609
-9.4882,-1.664,-1.549,-0.247,1.0056,-0.1324
-9.3829,-1.652,-1.8627,-0.1953,1.0616,-0.0895
-8.9519,-1.5778,-1.7502,-0.1569,1.1034,-0.125
-9.1722,-1.7621,-1.7023,-0.134,1.1407,-0.1423
-8.7867,-1.8411,-1.6376,-0.1143,1.0808,-0.1029
-8.8178,-1.901,-1.8411,-0.121,1.0773,-0.0885
-9.1482,-1.8747,-1.9656,-0.1092,1.0038,-0.0989
-8.9735,-1.7909,-1.7909,-0.1095,0.8228,-0.0951
-8.7939,-1.8651,-1.6305,-0.1415,0.6792,-0.1026
-8.9615,-1.9417,-1.3815,-0.1828,0.546,-0.1132
-9.0333,-1.8842,-1.2378,-0.2001,0.4167,-0.121
-9.2584,-1.8411,-1.1181,-0.2196,0.3182,-0.1215
-9.347,-1.798,-0.9313,-0.2084,0.2395,-0.114
-9.5457,-1.9201,-0.723,-0.2004,0.1889,-0.1087
-9.4619,-1.8459,-0.3352,-0.2134,0.1426,-0.1175
-9.5313,-1.7789,-0.0239,-0.2577,0.19,-0.1234
-9.8665,-1.8004,0.0144,-0.2848,0.2531,-0.1279
-10.1993,-1.7526,0.0431,-0.3091,0.2529,-0.1306
-9.845,-1.6448,0.3615,-0.3403,0.2774,-0.142
-9.505,-1.5897,0.4693,-0.3392,0.4663,-0.1671
-9.5505,-1.6664,0.3903,-0.288,0.6827,-0.2001
-9.5289,-1.8435,0.2155,-0.2403,0.825,-0.2161
-9.2632,-1.9896,0.0431,-0.2369,0.8993,-0.2326
-9.0644,-2.1045,-0.3376,-0.2755,0.9142,-0.2489
-8.8514,-2.0662,-0.8643,-0.3219,0.8892,-0.2505
-8.7221,-1.913,-1.5371,-0.3309,0.8426,-0.2348
-8.5521,-1.7047,-1.9369,-0.3104,0.7933,-0.2108
-8.4156,-1.6376,-2.2769,-0.2689,0.728,-0.1913
-8.1068,-1.5634,-2.5402,-0.2217,0.6384,-0.1761
-7.8961,-1.5754,-2.8826,-0.1764,0.53,-0.158
-7.7045,-1.7023,-3.1196,-0.1391,0.3989,-0.1287
-7.5824,-1.7621,-3.0957,-0.1138,0.2486,-0.1029
-7.6375,-1.8004,-2.9449,-0.0946,0.1178,-0.0914
-7.9464,-1.7813,-2.9544,-0.0821,0.0179,-0.0759
-8.3414,-1.7621,-2.818,-0.0711,-0.0613,-0.0506
-8.5377,-1.7262,-2.7342,-0.0685,-0.0941,-0.0248
-8.77,-1.8483,-2.6671,-0.0679,-0.0725,-0.0083
-8.8202,-1.8172,-2.6145,-0.0546,-0.0653,0.0
-8.746,-1.8435,-2.5546,-0.0397,-0.0573,0.0085
-8.8825,-1.7861,-2.4301,-0.033,-0.0301,0.0218
-9.165,-1.8076,-2.2362,-0.0261,-0.0309,0.0314
-9.2847,-1.7095,-2.1452,-0.0309,-0.0115,0.0352
-9.3063,-1.7214,-2.1261,-0.0501,0.0309,0.0325
-9.2991,-1.7502,-2.0662,-0.0648,0.0823,0.0253
-9.1818,-1.6927,-1.8914,-0.0695,0.1236,0.0141
-8.9112,-1.7047,-1.7023,-0.0557,0.1668,0.0056
-8.7269,-1.7645,-1.652,-0.0354,0.2196,-0.0019
-8.6646,-1.7813,-1.5299,-0.0285,0.2529,-0.0061
-8.6526,-1.7526,-1.5179,-0.028,0.2934,-0.0051
-8.5928,-1.7406,-1.5993,-0.037,0.3256,-0.0024
-8.509,-1.664,-1.6352,-0.0472,0.3778,-0.0029
-8.3893,-1.6185,-1.731,-0.0362,0.4133,0.0021
-8.2384,-1.573,-1.8124,-0.0171,0.4157,0.0064
-8.0876,-1.6089,-1.901,-0.0011,0.3664,0.0075
-8.0421,-1.664,-1.9106,0.0099,0.2774,0.0099
-8.0924,-1.7142,-1.9776,0.0101,0.1735,0.0101
-8.2839,-1.7238,-2.0542,-0.0019,0.0735,0.0083
-8.4803,-1.7597,-2.0853,-0.016,-0.004,0.0117
-8.6574,-1.731,-2.2458,-0.0163,-0.0498,0.0176
-8.8633,-1.7669,-2.3056,-0.0043,-0.0709,0.0197
-9.0022,-1.7957,-2.3104,0.0088,-0.0871,0.0195
-9.1506,-1.8316,-2.2362,0.0043,-0.1023,0.0203
-9.2368,-1.8483,-2.1213,-0.0096,-0.1029,0.0197
-9.3757,-1.7885,-2.0111,-0.0176,-0.0866,0.0173
-9.3996,-1.8124,-2.0231,-0.0171,-0.0536,0.0133
-9.3901,-1.7669,-2.0901,-0.0061,-0.0152,0.0181
-9.2823,-1.7885,-2.1189,0.0099,0.0213,0.0306
-9.1387,-1.7669,-2.0877,0.0176,0.0397,0.036
-8.9807,-1.7789,-2.0566,0.0187,0.0525,0.0368
-8.8969,-1.6975,-2.0806,0.0277,0.0477,0.0368
-8.837,-1.7549,-2.1524,0.0365,0.0285,0.0386
-8.6431,-1.7669,-2.1979,0.0496,0.0077,0.0421
-8.5186,-1.7957,-2.2003,0.0616,-0.0077,0.0405
-8.43,-1.7573,-2.2434,0.0714,-0.0362,0.041
-8.3366,-1.7478,-2.2098,0.0829,-0.0629,0.0434
-8.442,-1.8172,-2.1883,0.0823,-0.1042,0.0429
-8.5497,-1.8268,-1.98,0.0703,-0.1543,0.0378
-8.8298,-1.8627,-1.6185,0.0589,-0.1884,0.0261
-9.1794,-1.9465,-1.4174,0.0549,-0.194,0.0093
-9.414,-1.9704,-1.3551,0.0498,-0.1735,-0.0021
-9.6031,-1.9944,-1.494,0.0389,-0.1327,-0.0016
-9.6678,-1.9321,-1.5778,0.0248,-0.0823,-0.0032
-9.5553,-1.8866,-1.8292,0.0181,-0.0184,-0.0101
-9.3709,-1.7526,-1.9417,0.0264,0.0338,-0.0125
-9.2105,-1.7382,-2.0255,0.044,0.0687,-0.0112
-9.0908,-1.6975,-2.1476,0.0602,0.0698,-0.008
-8.9136,-1.7334,-2.2529,0.073,0.0445,0.0008
-8.734,-1.8004,-2.2505,0.085,0.0069,0.0075
-8.6143,-1.7693,-2.1955,0.0797,-0.0296,0.0149
-8.5736,-1.798,-2.1548,0.0693,-0.0781,0.0211
-8.6143,-1.7621,-2.0351,0.065,-0.1247,0.0312
-8.8083,-1.7861,-1.9034,0.0666,-0.1569,0.0365
-9.0333,-1.8148,-1.6664,0.0687,-0.1988,0.0346
-9.0453,-1.8675,-1.4629,0.0621,-0.2022,0.0277
-9.2081,-1.9058,-1.3934,0.0618,-0.1519,0.0173
-9.3015,-1.9154,-1.3982,0.0693,-0.1095,0.0136
-9.0549,-1.9992,-1.3599,0.0709,-0.0586,0.0096
-9.0214,-1.968,-1.2258,0.065,-0.008,-0.0059
-9.1482,-1.8483,-1.0774,0.0578,-0.0386,-0.0168
-9.2225,-1.7238,-1.0008,0.0493,-0.1218,-0.012
-9.3087,-1.7023,-0.7063,0.0509,-0.1524,-0.0085
-9.6175,-1.7717,-0.2682,0.0602,-0.1442,-0.0344
-9.5433,-1.9201,0.0694,0.0594,-0.0898,-0.0658
-9.517,-2.1548,0.3328,0.0637,-0.0136,-0.0967
-9.3925,-2.3583,0.2538,0.0365,-0.0131,-0.1188
-8.9711,-2.4493,-0.0215,-0.0128,-0.0845,-0.1276
-8.758,-2.32,-0.6895,-0.0413,-0.2276,-0.1268
-8.5473,-2.0207,-1.142,-0.0149,-0.3874,-0.1215
-8.4683,-1.9513,-1.6352,0.0088,-0.4572,-0.1215
-8.7795,-2.1045,-2.1739,-0.0152,-0.5151,-0.1234
-9.0118,-2.1572,-2.624,-0.0338,-0.6568,-0.1319
-8.9471,-2.0039,-2.5474,-0.0179,-0.9225,-0.1343
-8.2432,-2.0806,-2.0925,0.0264,-1.0136,-0.1005
-8.904,-2.3367,-1.1732,0.0949,-0.9385,-0.0909
-9.9383,-2.5402,0.2155,0.13,-0.9406,-0.1543
-10.4579,-2.7821,1.2378,0.0986,-0.9369,-0.2417
-10.9439,-3.2777,1.5347,-0.0344,-0.8639,-0.2827
-10.7667,-3.486,1.1708,-0.174,-0.8135,-0.3083
-9.924,-3.4261,0.565,-0.303,-0.6734,-0.3062
-9.3134,-3.2154,-0.5076,-0.3776,-0.4642,-0.2766
-8.4156,-2.9329,-1.7238,-0.4143,-0.3115,-0.3048
-7.5417,-2.8108,-3.3279,-0.4226,-0.2265,-0.2747
-7.5824,-2.6576,-4.2569,-0.2811,-0.2955,-0.2038
-7.1036,-2.2075,-4.4532,0.0139,-0.5049,-0.1545
-6.9168,-2.2194,-3.8571,0.2742,-0.5732,-0.1402
-7.2113,-2.4493,-3.7397,0.4293,-0.6422,-0.1231
-7.7093,-2.5379,-3.7733,0.5516,-0.756,-0.0765
-7.8195,-2.2529,-4.6519,0.6422,-0.748,-0.0314
-8.2696,-1.8435,-5.442,0.7317,-0.668,-0.0021
-8.09,-1.3479,-6.1842,0.8242,-0.5748,0.0173
-7.7812,-0.826,-6.6918,0.9292,-0.4157,0.0645
-8.0589,-0.3591,-6.5577,0.9998,-0.2747,0.1732
-8.7077,-0.3711,-5.8323,1.104,-0.1551,0.2854
-8.983,-0.5459,-4.9057,1.1924,-0.0413,0.3696
-9.2296,-0.9888,-3.6919,1.2151,0.1412,0.4143
-9.1818,-1.5155,-2.9018,1.2351,0.2947,0.4644
-8.8609,-1.6807,-1.98,1.2428,0.3858,0.4978
-8.0709,-1.8004,-1.7933,1.2633,0.3784,0.4911
-7.6758,-1.8818,-1.2091,1.3043,0.3429,0.5065
-7.7716,-1.8483,-0.7326,1.347,0.2241,0.538
-8.8178,-2.071,-0.7422,1.34,0.0909,0.5095
-9.1626,-1.9058,-0.6153,1.303,-0.0965,0.4202
-9.1961,-1.7047,-0.7302,1.1919,-0.2156,0.3603
-8.9088,-1.5802,-1.6424,1.1405,-0.3048,0.2835
-8.7795,-1.2617,-1.9944,1.1127,-0.3509,0.2537
-8.5425,-0.972,-2.296,1.1133,-0.3435,0.2587
-8.5521,-0.7207,-2.5331,1.133,-0.2947,0.2891
-8.7724,-0.5363,-2.5953,1.1514,-0.226,0.3477
-8.8011,-0.5387,-2.2936,1.1519,-0.1567,0.3984
-8.8801,-0.7111,-1.6496,1.1231,-0.1085,0.4423
-8.8202,-0.8978,-1.0295,1.0746,-0.0698,0.4786
-9.098,-1.0989,-0.51,1.0086,-0.052,0.5017
-9.3446,-1.0726,0.0335,0.9156,-0.0525,0.5041
-9.845,-0.9673,0.1676,0.8418,-0.118,0.4884
-9.7157,-1.1229,0.5842,0.7802,-0.2918,0.4567
-9.2368,-1.3288,1.0726,0.7248,-0.5159,0.4135
-9.1099,-1.2402,1.2139,0.6427,-0.7402,0.3557
-9.5361,-1.063,1.0989,0.5761,-0.9086,0.3056
-9.7803,-0.9816,0.5986,0.5526,-1.0142,0.2545
-9.6367,-0.9625,0.4932,0.5212,-1.0736,0.2126
-9.4882,-0.9194,0.565,0.4882,-1.0429,0.1927
-9.3374,-0.9146,0.917,0.4719,-0.9486,0.1687
-8.5688,-0.7925,1.6137,0.4231,-0.7706,0.1617
-9.3637,-0.8523,1.3096,0.3653,-0.4533,0.1724
-10.7619,-0.8978,1.5083,0.3243,-0.0743,0.1412
-10.8673,-1.0223,1.6448,0.2388,0.2414,0.0829
-10.0987,-1.1037,1.8004,0.1479,0.4221,0.0301
-9.6654,-1.2641,1.9848,0.0624,0.4732,-0.0242
-9.0405,-1.3838,2.1213,-0.0133,0.4197,-0.0589
-8.8322,-1.6137,2.2314,-0.093,0.3035,-0.0858
-9.0668,-1.7406,2.1213,-0.1545,0.1977,-0.1098
-9.4619,-1.6759,1.901,-0.2086,0.1085,-0.1268
-9.5193,-1.5634,1.403,-0.2302,0.0301,-0.1516
-9.2249,-1.5131,1.0654,-0.243,-0.0344,-0.1721
-8.8202,-1.494,0.8356,-0.235,-0.0661,-0.1759
-8.6215,-1.4964,0.6536,-0.2446,-0.0845,-0.1689
-8.7197,-1.3838,0.6512,-0.2587,-0.089,-0.1567
-9.1291,-1.245,0.577,-0.2625,-0.06,-0.15
-9.3948,-1.2043,0.5459,-0.2627,0.0093,-0.1561
-9.1722,-1.1971,0.4669,-0.2809,0.0512,-0.1631
-9.1267,-1.2809,0.6584,-0.3,0.0671,-0.1703
-9.177,-1.4293,0.5387,-0.3309,0.0445,-0.1825
-9.3541,-1.5012,0.4357,-0.3752,0.0056,-0.2004
-9.4332,-1.5395,0.261,-0.408,-0.0568,-0.222
-9.2608,-1.4461,0.0192,-0.4386,-0.126,-0.2478
-9.0046,-1.4485,-0.2658,-0.4591,-0.1804,-0.2603
-8.8753,-1.4126,-0.4214,-0.4612,-0.218,-0.2619
-8.983,-1.4557,-0.6105,-0.4522,-0.247,-0.2587
-8.9783,-1.5347,-0.6584,-0.4463,-0.287,-0.2518
-9.2057,-1.6592,-0.4717,-0.4519,-0.319,-0.2435
-9.4284,-1.7909,-0.2825,-0.4599,-0.3299,-0.2398
-9.6079,-1.9034,-0.182,-0.4831,-0.3072,-0.2443
-9.5984,-2.047,-0.0215,-0.5151,-0.255,-0.2531
-9.6798,-1.9896,0.0479,-0.5606,-0.145,-0.287
-9.7875,-1.968,-0.0263,-0.5979,-0.0365,-0.3062
-9.9383,-1.8579,-0.1077,-0.6081,0.0805,-0.3067
-10.1323,-1.8411,-0.3017,-0.6179,0.1929,-0.3107
-10.0628,-1.7861,-0.4836,-0.6486,0.2777,-0.3304
-9.8378,-1.719,-0.8284,-0.6749,0.3389,-0.3451
-9.6223,-1.6113,-1.0654,-0.6923,0.3496,-0.3365
-9.5385,-1.5443,-1.3623,-0.7123,0.303,-0.3296
-9.1315,-1.6496,-1.664,-0.7274,0.1564,-0.3134
-8.5449,-1.6759,-1.7454,-0.7623,0.0211,-0.287
-8.2744,-1.719,-1.6089,-0.7639,-0.0624,-0.2374
-8.2361,-1.6951,-1.9728,-0.7341,-0.1034,-0.1807
-8.5186,-1.9369,-1.8364,-0.7325,-0.1412,-0.1247
-8.5856,-2.083,-1.1277,-0.7815,-0.1713,-0.0949
-8.928,-2.1452,-0.7326,-0.7917,-0.1106,-0.0799
-9.742,-2.1332,-0.6321,-0.7378,-0.0173,-0.0586
-10.0078,-2.1835,-0.419,-0.6502,0.0874,-0.0608
-9.9431,-2.3487,-0.0742,-0.5782,0.234,-0.0741
-9.5481,-2.4517,0.0407,-0.5103,0.3571,-0.0663
-8.7987,-2.3918,-0.1652,-0.469,0.4511,-0.0546
-8.2217,-2.2697,-0.814,-0.4474,0.5012,-0.0322
-7.9727,-2.0135,-1.4461,-0.4128,0.4503,-0.0053
-7.7333,-1.913,-1.7502,-0.3651,0.2646,0.0051
-7.3574,-1.81,-1.8483,-0.3163,0.061,0.0096
-7.3765,-1.9345,-1.4892,-0.2923,-0.1031,0.0024
-7.92,-1.8699,-1.0463,-0.2713,-0.2633,0.0109
-8.2768,-1.98,-0.7877,-0.2372,-0.4517,0.0282
-8.0661,-2.0734,-0.1221,-0.1825,-0.5492,0.0927
-8.3486,-2.1931,0.9337,-0.1919,-0.4796,0.1612
-8.8131,-2.3463,1.4964,-0.2198,-0.2947,0.129
-9.1626,-2.3511,1.8531,-0.1913,-0.1058,0.0757
-9.5217,-2.2098,1.8387,-0.1793,0.121,0.0562
-10.0772,-2.1955,0.9888,-0.2513,0.2942,0.0107
-10.0724,-2.2314,-0.0024,-0.3171,0.4021,-0.0328
-9.7612,-2.1644,-0.7446,-0.3184,0.5436,-0.0738
-9.3158,-2.0255,-1.3168,-0.2739,0.7131,-0.0973
-8.8825,-1.9465,-1.8579,-0.2225,0.841,-0.0901
-8.5545,-1.9632,-2.2194,-0.1743,0.8852,-0.0791
-8.0349,-2.0542,-2.5953,-0.1391,0.8111,-0.0775
-7.7428,-2.0518,-2.8156,-0.1106,0.6768,-0.0677
-7.9248,-1.9968,-2.8036,-0.0882,0.4847,-0.0437
-8.0565,-1.8699,-2.8276,-0.0709,0.2864,-0.0317
-8.6024,-2.0758,-2.6911,-0.0517,0.1498,0.0536
-9.0573,-1.98,-2.8084,-0.0434,-0.0176,0.0815
-9.1075,-1.9058,-2.6336,-0.0829,-0.1601,0.0586
-8.8394,-1.8507,-2.0063,-0.1239,-0.2353,0.0592
-8.8322,-1.8531,-1.4748,-0.1372,-0.2521,0.0877
-8.7891,-1.9273,-0.9673,-0.1396,-0.2681,0.1058
-8.7317,-1.9393,-0.7446,-0.1514,-0.2593,0.1263
-8.8035,-1.9776,-0.6823,-0.1745,-0.2097,0.1396
-8.904,-2.0159,-0.6297,-0.1892,-0.1556,0.1306
-8.8945,-1.9489,-0.6991,-0.2022,-0.0735,0.117
-8.9519,-1.8747,-0.7063,-0.2124,0.0474,0.114
-9.1961,-1.8268,-0.8428,-0.1913,0.1516,0.0911
-9.0118,-1.7693,-0.917,-0.1585,0.2113,0.0687
-8.8969,-1.798,-1.0989,-0.1159,0.2934,0.0525
-8.8011,-1.8124,-1.3815,-0.0743,0.3208,0.0384
-8.6933,-1.8459,-1.6592,-0.0402,0.3387,0.0272
-8.7029,-1.9369,-1.9848,-0.0163,0.3179,0.0157
-8.6383,-1.9585,-2.0111,-0.0005,0.2601,-0.0003
-8.7269,-1.9776,-1.9273,0.0085,0.1953,-0.0125
-8.8107,-1.9489,-1.7214,-0.0008,0.1415,-0.0205
-9.0429,-1.9082,-1.3623,-0.02,0.1186,-0.0195
-9.1291,-1.8818,-0.9984,-0.0277,0.1162,-0.0128
-9.3254,-1.9321,-0.8428,-0.0253,0.1362,-0.0147
-9.3446,-1.9752,-0.8523,-0.0386,0.1191,-0.0048
-9.3326,-1.8938,-0.8236,-0.0626,0.1055,-0.0051
-9.323,-1.834,-1.0247,-0.0885,0.0911,-0.0019
-9.402,-1.7358,-1.0798,-0.1031,0.0925,-0.0003
-9.2344,-1.7837,-1.1995,-0.1116,0.1274,0.004
-9.1961,-1.7526,-1.2234,-0.1074,0.1841,0.0088
-9.0094,-1.7454,-1.3384,-0.0861,0.2012,0.0061
-8.6838,-1.7765,-1.4653,-0.0592,0.1982,-0.0024
-8.5329,-1.8411,-1.4796,-0.0304,0.1865,-0.0005
-8.6048,-1.8579,-1.482,-0.0104,0.1551,0.0053
-8.7317,-1.9225,-1.5826,-0.0013,0.1244,0.0104
-8.9495,-1.9489,-1.6113,0.0053,0.0981,0.0139
-8.9783,-1.9632,-1.5586,0.0133,0.0714,0.0149
-9.0333,-1.9417,-1.4102,0.0221,0.0608,0.0109
-8.9567,-1.9393,-1.3791,0.0258,0.0645,0.0112
-8.8729,-1.9632,-1.2546,0.0272,0.073,0.0171
-8.8873,-1.9848,-1.1325,0.0139,0.0661,0.0229
-8.9783,-1.968,-1.0942,-0.0021,0.0402,0.0197
-9.1842,-1.9321,-0.8811,-0.0234,0.0,0.0168
-9.3589,-1.901,-0.8978,-0.0421,-0.028,0.0112
-9.3446,-1.8771,-1.0726,-0.0533,-0.0293,0.0051
-9.2488,-1.7957,-1.2378,-0.0568,0.004,0.0037
-9.1435,-1.7957,-1.482,-0.0512,0.0586,0.0085
-8.9878,-1.7142,-1.6041,-0.0357,0.1061,0.0123
-8.8178,-1.6831,-1.5682,-0.0128,0.1274,0.0064
-8.734,-1.6927,-1.6879,0.0173,0.138,0.004
-8.7412,-1.7573,-1.8076,0.0352,0.1287,0.0075
-8.7652,-1.8651,-1.7621,0.0408,0.1122,0.0125
-8.9447,-1.889,-1.6855,0.0389,0.0829,0.0091
-8.9974,-1.889,-1.6592,0.0344,0.0482,0.0072
-8.9926,-1.913,-1.6807,0.0405,0.0245,0.0109
-8.9711,-1.8435,-1.6568,0.0498,0.008,0.0195
-8.9519,-1.901,-1.5706,0.0474,-0.0163,0.0234
-8.8945,-1.9034,-1.4461,0.0336,-0.0341,0.0258
-8.9495,-1.9178,-1.3767,0.0157,-0.0349,0.0245
-9.019,-1.9058,-1.2139,-0.0037,-0.0453,0.0211
-9.0357,-1.8316,-1.142,-0.0189,-0.049,0.016
-9.1602,-1.8268,-1.0678,-0.0266,-0.0336,0.0104
-9.3015,-1.8316,-1.1037,-0.029,-0.0152,0.0037
-9.2847,-1.8364,-1.2953,-0.0274,0.0144,-0.0067
-9.232,-1.798,-1.5443,-0.0131,0.0416,-0.0104
-9.1411,-1.7909,-1.6328,0.0029,0.0685,-0.0157
-9.0716,-1.7382,-1.6161,0.0181,0.0719,-0.0195
-9.0381,-1.7286,-1.2737,0.0253,0.0725,-0.025
-9.0716,-1.798,-1.1899,0.025,0.0693,-0.0354
-9.0836,-1.8483,-0.9146,0.0208,0.0432,-0.0365
-9.0477,-1.8531,-0.7015,0.0139,-0.0027,-0.0288
-9.0429,-1.8962,-0.6752,0.0123,-0.0237,-0.0365
-9.2225,-1.8794,-0.5052,0.0203,-0.0408,-0.056
-9.1985,-1.9321,-0.4381,0.0171,-0.0735,-0.0653
-9.1051,-1.9537,-0.5938,0.0117,-0.0994,-0.0562
-9.1482,-1.9441,-0.7039,-0.0013,-0.1612,-0.0386
-9.019,-1.9489,-0.6201,-0.0149,-0.2451,-0.0261
-9.1004,-2.0159,-0.2634,-0.0139,-0.2721,-0.0402
-9.2464,-2.0494,0.2107,-0.0013,-0.3523,-0.0666
-8.9926,-2.1261,0.2969,0.004,-0.4373,-0.0632
-8.77,-2.217,0.431,0.0011,-0.4322,-0.0845
-8.9328,-2.3128,0.3496,-0.037,-0.4517,-0.1143
-8.8035,-2.3439,0.3328,-0.0789,-0.5241,-0.1319
-8.6383,-2.3296,0.3855,-0.1106,-0.5351,-0.1522
-8.8801,-2.4086,0.1556,-0.1311,-0.5073,-0.1951
-9.1051,-2.4014,-0.1867,-0.1372,-0.4967,-0.2366
-9.3877,-2.3463,-0.8164,-0.1346,-0.5372,-0.2502
-9.414,-2.3535,-1.6664,-0.1362,-0.5878,-0.2358
-9.5481,-2.3535,-1.7837,-0.1063,-0.5604,-0.2297
-9.7851,-2.4301,-1.3982,-0.0786,-0.4943,-0.2553
-9.7109,-2.5666,-1.1947,-0.0663,-0.473,-0.3062
-9.3685,-2.8228,-1.4413,-0.1071,-0.4338,-0.3429
-9.2225,-2.9856,-1.7933,-0.1833,-0.4911,-0.3451
-8.7436,-3.0885,-1.5754,-0.2374,-0.6875,-0.2795
-8.3222,-3.0622,-1.1756,-0.2012,-0.7408,-0.2062
-8.5114,-2.8515,-0.6393,-0.1026,-0.6915,-0.1884
-8.8969,-2.8874,-0.3687,0.0421,-0.6334,-0.1831
-9.0357,-2.9042,-0.7254,0.1647,-0.5993,-0.1529
-8.849,-2.9592,-1.4964,0.2289,-0.5121,-0.1095
-8.6215,-2.648,-2.624,0.2934,-0.3978,-0.0978
-8.1427,-2.3415,-3.6416,0.3648,-0.2832,-0.0432
-8.4922,-1.9896,-4.0079,0.4295,-0.2406,0.0096
-7.7907,-1.585,-4.3814,0.4823,-0.3581,0.0147
-7.5178,-1.2378,-4.2497,0.5577,-0.3893,0.0285
-7.829,-1.1684,-4.2329,0.619,-0.4335,0.0437
-8.0421,-1.1229,-4.3646,0.6885,-0.4663,0.0679
-8.26,-1.0726,-3.9217,0.7194,-0.5044,0.1132
-8.3606,-1.0032,-3.8259,0.7309,-0.5095,0.1617
-8.4563,-1.0846,-3.0837,0.7962,-0.4341,0.178
-8.5114,-1.2498,-2.4924,0.8348,-0.3139,0.2094
-8.9328,-1.6616,-2.0686,0.8388,-0.1324,0.2515
-9.1913,-1.8028,-1.7717,0.8713,0.0099,0.2883
-9.0477,-1.7813,-1.5179,0.9497,0.2038,0.3323
-9.2584,-1.9537,-1.0247,0.9886,0.3038,0.3453
-8.5186,-1.9513,-0.8428,1.0483,0.3192,0.3483
-8.2983,-1.8364,-0.7661,1.0661,0.3259,0.3589
-8.3438,-1.7645,-1.0582,1.0736,0.303,0.3309
-8.6574,-1.7095,-1.5083,1.0523,0.2499,0.3006
-8.4443,-1.81,-1.6616,1.0459,0.1348,0.2558
-7.7883,-1.3575,-1.0295,1.0192,0.0861,0.2441
-8.2121,-1.4916,-1.3312,1.0024,0.0357,0.2731
-8.7604,-1.4293,-1.3024,1.0115,0.025,0.2659
-8.9208,-1.3958,-1.1732,0.9995,0.065,0.2747
-9.0812,-1.4916,-1.1516,0.9872,0.1585,0.2896
-9.1506,-1.4269,-0.8092,0.9566,0.251,0.3147
-8.8681,-1.4126,-0.6153,0.902,0.3043,0.3365
-8.9878,-1.4605,-0.2753,0.866,0.3355,0.3613
-9.0429,-1.5347,-0.0168,0.8127,0.299,0.3874
-9.3039,-1.4174,0.2179,0.7653,0.2523,0.384
-9.4451,-1.4198,0.2418,0.7157,0.1218,0.3568
-8.8609,-1.4461,0.589,0.6704,-0.0237,0.3304
-9.0836,-1.4868,0.5602,0.6243,-0.142,0.3182
-9.3015,-1.4724,0.4381,0.5934,-0.2414,0.3003
-9.2943,-1.3695,0.5148,0.551,-0.3288,0.2739
-9.2057,-1.2713,0.3759,0.5151,-0.3904,0.2427
-8.9088,-1.2474,0.5028,0.4927,-0.4615,0.2193
-8.9615,-1.245,0.6536,0.4636,-0.5068,0.2014
-9.2847,-1.2354,0.5674,0.4271,-0.5316,0.1937
-9.4499,-1.245,0.7326,0.38,-0.5185,0.1767
-9.0716,-1.3001,1.0295,0.3464,-0.4908,0.1663
-8.8945,-1.4533,1.2905,0.296,-0.4634,0.158
-9.0405,-1.482,1.4389,0.2366,-0.4245,0.1431
-9.2488,-1.3551,1.3815,0.1807,-0.3693,0.121
-9.2751,-1.2522,1.1732,0.1215,-0.3203,0.0973
-8.9687,-1.1803,1.1947,0.0687,-0.3019,0.0722
-8.6359,-1.1851,1.2689,0.0269,-0.2769,0.0504
-8.4659,-1.2905,1.3431,-0.0123,-0.2361,0.0328
-8.758,-1.3934,1.3048,-0.052,-0.1418,0.025
-9.0285,-1.4269,1.3455,-0.0909,-0.0386,0.0229
-9.1698,-1.5083,1.3192,-0.1212,0.0741,0.0149
-9.4164,-1.6975,1.2594,-0.1458,0.1687,-0.004
-9.4882,-1.8052,1.1061,-0.1708,0.2451,-0.0264
-9.5122,-1.8148,0.9313,-0.1924,0.3118,-0.0498
-9.4332,-1.7047,0.6033,-0.2054,0.3533,-0.0701
-9.4188,-1.6328,0.2873,-0.2094,0.3709,-0.0815
-9.4403,-1.6305,0.0982,-0.2121,0.3685,-0.0845
-9.4212,-1.6305,0.0287,-0.2201,0.3509,-0.0842
-9.5313,-1.6161,0.0814,-0.2366,0.3333,-0.0826
-9.5361,-1.5155,0.0718,-0.2566,0.3075,-0.0829
-9.3996,-1.5897,-0.0455,-0.2729,0.2358,-0.0778
-8.3246,-1.6616,0.4621,-0.2667,0.0594,-0.0594
-7.8554,-1.8364,0.7111,-0.3094,-0.1868,-0.0626
-8.193,-1.8555,0.7087,-0.3616,-0.4626,-0.0799
-8.7388,-1.7765,0.6416,-0.3986,-0.6776,-0.1063
-9.098,-1.7549,0.6847,-0.4466,-0.8332,-0.1519
-9.3278,-1.9178,0.6943,-0.489,-0.9148,-0.1887
-9.1842,-2.0518,0.826,-0.53,-0.9534,-0.2113
-9.2153,-2.15,0.8452,-0.5556,-0.8761,-0.2201
-9.5529,-2.059,0.7039,-0.5478,-0.7221,-0.199
-9.8162,-2.0039,0.5148,-0.5337,-0.5393,-0.1801
-9.8186,-1.8747,0.2394,-0.5279,-0.3392,-0.1836
-9.6007,-1.8028,-0.0646,-0.5215,-0.1423,-0.1807
-9.2416,-1.6448,-0.3759,-0.497,0.0493,-0.1649
-8.9759,-1.4892,-0.814,-0.4626,0.2078,-0.1388
-8.8585,-1.4772,-1.1133,-0.4535,0.2675,-0.134
-8.6383,-1.5155,-1.1133,-0.4658,0.3006,-0.13
-8.8969,-1.5347,-0.9337,-0.4503,0.3248,-0.1066
-9.323,-1.5754,-0.8523,-0.4298,0.3669,-0.0815
-9.8043,-1.6113,-0.8092,-0.4149,0.4349,-0.0703
-10.1227,-1.6783,-0.893,-0.4282,0.5049,-0.077
-10.2376,-1.6999,-0.8811,-0.4618,0.5545,-0.0898
-10.1394,-1.6999,-1.0726,-0.5071,0.5684,-0.0999
-10.1921,-1.7095,-1.1923,-0.5308,0.5462,-0.1119
-10.1706,-1.7837,-1.4916,-0.542,0.4778,-0.1103
-9.8928,-1.8507,-1.2474,-0.5737,0.3842,-0.1034
-9.6175,-1.8962,-1.0032,-0.6046,0.3333,-0.0887
-9.572,-1.9537,-0.8787,-0.6249,0.3051,-0.0805
-9.517,-2.0925,-0.8906,-0.6275,0.2102,-0.069
-9.1506,-2.1596,-0.5219,-0.6291,0.0839,-0.0703
-8.8394,-2.1476,-0.1867,-0.6131,-0.0245,-0.0751
-8.6718,-2.1141,0.0814,-0.5796,-0.0957,-0.0743
-8.7724,-2.0758,0.0527,-0.5303,-0.1348,-0.0938
-8.9112,-1.9632,-0.0168,-0.4834,-0.1412,-0.0991
-9.1818,-1.8986,-0.3879,-0.4333,-0.1223,-0.0981
-9.2584,-1.7238,-0.7015,-0.3709,-0.0605,-0.105
-9.2201,-1.664,-1.4078,-0.2934,0.045,-0.1186
-9.1339,-1.6855,-1.9417,-0.1927,0.1516,-0.1239
-9.0357,-1.7023,-2.2122,-0.1202,0.2225,-0.1199
-8.8035,-1.9249,-2.2218,-0.1053,0.2523,-0.1146
-8.6287,-2.0039,-1.9201,-0.1159,0.2899,-0.1103
-8.837,-2.0806,-1.8411,-0.1242,0.3259,-0.0874
-9.0285,-2.1069,-1.6472,-0.1306,0.3192,-0.0735
-9.4044,-2.1261,-1.5227,-0.1242,0.3211,-0.0783
-9.5984,-2.0638,-1.6233,-0.1252,0.279,-0.0517
-9.6486,-2.2649,-1.0774,-0.1977,0.2769,-0.0211
-9.8162,-2.3224,-0.4525,-0.2718,0.3299,-0.0163
-10.0341,-2.2841,-0.0862,-0.3262,0.4093,-0.0229
-10.6877,-2.2386,-0.0455,-0.3861,0.4045,-0.0224
-10.4722,-2.2984,0.328,-0.4557,0.2214,-0.0306
-9.1722,-2.1596,1.2163,-0.4604,0.2113,-0.033
-8.5066,-1.9824,1.4988,-0.413,0.3728,-0.0341
-8.1882,-1.9609,1.3001,-0.3741,0.486,-0.0541
-7.8171,-1.9824,1.0199,-0.3501,0.5105,-0.0703
-7.6375,-2.0638,0.7518,-0.3741,0.4839,-0.0234
-8.0278,-2.0446,0.3017,-0.3962,0.3936,0.0197
-7.8745,-1.8364,-0.4214,-0.4165,0.3387,-0.0541
-8.1283,-1.6783,-1.1468,-0.3893,0.3611,-0.085
-8.2768,-1.6712,-1.561,-0.284,0.3568,-0.0733
-8.1714,-1.7621,-1.5874,-0.1527,0.3597,-0.0685
-8.2097,-1.9632,-1.4676,-0.0658,0.4101,-0.0613
-8.4467,-2.1859,-1.47,-0.0341,0.4647,-0.0514
-8.5856,-2.2673,-1.7358,-0.041,0.5052,-0.0456
-8.7221,-2.1883,-1.7454,-0.0592,0.5188,-0.041
-8.8226,-2.0279,-1.7238,-0.0685,0.5068,-0.0469
-9.0573,-1.9489,-1.5179,-0.0501,0.4791,-0.0461
-9.2656,-1.9249,-1.2594,-0.0242,0.4282,-0.0368
-9.4188,-2.0087,-0.9553,-0.0131,0.392,-0.0328
-9.493,-2.0614,-0.8188,-0.0349,0.3672,-0.0376
-9.5002,-2.0542,-0.9026,-0.0935,0.3648,-0.0464
-9.3494,-2.0399,-1.142,-0.1639,0.3528,-0.0517
-9.0788,-2.0159,-1.3096,-0.1913,0.336,-0.0354
-8.8777,-1.968,-1.4533,-0.1868,0.3371,-0.0163
-8.6957,-1.8962,-1.4341,-0.1841,0.3499,-0.0112
-8.6048,-1.8675,-1.4533,-0.1737,0.3525,-0.0139
-8.5353,-1.8531,-1.5323,-0.1623,0.3291,-0.0117
-8.3677,-1.8579,-1.5897,-0.1519,0.2782,-0.0131
-8.2001,-1.889,-1.5586,-0.1348,0.2254,-0.0061
-8.1714,-1.8148,-1.6376,-0.1061,0.1713,-0.0072
-8.2384,-1.7717,-1.6616,-0.073,0.1114,-0.0069
-8.3294,-1.8675,-1.6783,-0.0442,0.049,-0.0083
-8.5042,-1.901,-1.7262,-0.0336,0.0,-0.0072
-8.7221,-1.9273,-1.7262,-0.0242,-0.0117,0.0
-8.8873,-1.9848,-1.7095,-0.0168,-0.0147,0.0013
-8.9112,-2.0159,-1.7358,-0.0115,-0.0067,0.0083
-8.8346,-2.0231,-1.6568,-0.0107,0.0064,0.0181
-8.7101,-2.0087,-1.6113,-0.0165,0.025,0.0229
-8.7915,-1.9632,-1.7142,-0.0195,0.0322,0.0325
-8.9807,-1.9872,-1.7597,-0.0266,0.0171,0.0424
-8.9495,-1.9728,-1.8747,-0.0306,0.0136,0.0469
-9.0118,-1.9273,-2.0638,-0.0266,0.0392,0.0482
-9.0621,-1.8866,-2.1811,-0.0184,0.0557,0.0522
-8.9783,-1.8794,-2.2601,-0.0088,0.0698,0.0544
-8.9016,-1.8459,-2.2817,-0.0024,0.0858,0.0504
-8.7484,-1.8555,-2.3248,0.0104,0.0911,0.0472
-8.6359,-1.8627,-2.3032,0.0211,0.0887,0.049
-8.5593,-1.8842,-2.2505,0.0333,0.0714,0.0464
-8.5665,-1.8794,-2.2314,0.032,0.0354,0.0445
-8.7005,-1.8148,-2.1213,0.0266,-0.0008,0.04
-8.825,-1.8675,-2.0183,0.0205,-0.0314,0.0341
-8.8466,-1.8507,-1.7334,0.0203,-0.0397,0.0256
-8.9016,-1.913,-1.6688,0.0173,-0.0397,0.0211
-8.8705,-1.913,-1.4509,0.0048,-0.029,0.0216
-8.9423,-1.9345,-1.4293,-0.0091,-0.0005,0.0144
-9.0309,-1.8771,-1.4006,-0.0165,0.0157,0.0056
-9.0716,-1.8723,-1.4868,-0.0184,0.0346,0.004
-9.1219,-1.8579,-1.6352,-0.0107,0.0602,0.0056
-9.1387,-1.8435,-1.6831,0.0035,0.0861,0.0037
-9.1794,-1.8292,-1.7095,0.0189,0.1148,-0.0008
-9.0812,-1.8387,-1.822,0.0288,0.1287,-0.0003
-8.9423,-1.9034,-2.0039,0.0448,0.1308,0.0005
-8.7652,-1.9058,-2.0446,0.0536,0.1087,0.0051
-8.7005,-1.9201,-2.071,0.0637,0.0741,0.0091
-8.6766,-1.9058,-2.0351,0.0725,0.0298,0.0139
-8.7005,-1.8938,-1.9321,0.0781,-0.0112,0.0181
-8.8011,-1.8675,-1.8507,0.0783,-0.0461,0.0203
-8.9064,-1.8603,-1.7741,0.0762,-0.0759,0.0237
-8.9232,-1.8866,-1.6185,0.0698,-0.0991,0.0274
-8.9471,-1.9249,-1.4892,0.0648,-0.1015,0.029
-8.9567,-1.9249,-1.3599,0.0589,-0.089,0.0264
-9.019,-1.9776,-1.4533,0.053,-0.0757,0.0264
-9.1004,-1.9537,-1.5036,0.0472,-0.0642,0.0248
-9.0836,-1.9154,-1.6759,0.0448,-0.0541,0.025
-9.1099,-1.9273,-1.7023,0.0512,-0.0384,0.0163
-9.2057,-1.9273,-1.6592,0.0549,-0.0392,0.0048
-9.1985,-1.9561,-1.664,0.0554,-0.037,-0.0093
-9.1746,-1.98,-1.6688,0.0573,-0.0211,-0.0155
-9.0956,-1.9968,-1.64,0.0581,-0.0109,-0.0171
-9.0573,-1.9992,-1.6807,0.0576,-0.0117,-0.0205
-9.0644,-1.9992,-1.6113,0.0522,-0.0197,-0.0213
-9.019,-1.9944,-1.5658,0.0496,-0.0312,-0.024
-9.098,-1.9752,-1.4676,0.0514,-0.0298,-0.0272
-9.0956,-1.9752,-1.2641,0.0554,-0.0445,-0.0253
-9.0764,-1.968,-1.324,0.0624,-0.0458,-0.0171
-9.0549,-1.9728,-1.3575,0.061,-0.0328,-0.012
-9.0932,-1.9824,-1.4461,0.0653,-0.0248,-0.0016
-8.9447,-1.9824,-1.2905,0.0693,-0.0312,0.0131
-8.8681,-1.9537,-1.1301,0.0685,-0.0445,0.0181
-8.8298,-2.0063,-0.9601,0.0624,-0.0584,0.0128
-8.9399,-1.9968,-1.0056,0.0573,-0.0608,0.004
-9.0788,-2.047,-1.2067,0.053,-0.0799,0.0048
-9.1698,-2.0446,-1.4174,0.045,-0.1042,0.0064
-9.1339,-1.9992,-1.4605,0.0357,-0.1106,-0.0008
-9.1602,-1.9776,-1.4246,0.0413,-0.1069,-0.0101
-9.2273,-2.0039,-1.4988,0.0485,-0.1191,-0.0216
-9.2847,-1.9896,-1.1684,0.0565,-0.1951,-0.0203
-9.0309,-1.9489,-0.8787,0.0765,-0.2489,-0.0128
-9.2464,-1.98,-0.5794,0.0901,-0.2356,-0.0365
-9.4882,-2.1691,-0.3591,0.0909,-0.2358,-0.0725
-9.4403,-2.2673,-0.261,0.0679,-0.2449,-0.0898
-9.4786,-2.2889,-0.2993,0.0456,-0.2883,-0.0885
-9.177,-2.2122,-0.3208,0.0314,-0.3285,-0.0909
-9.1866,-2.2889,-0.3639,0.0077,-0.3032,-0.1143
-9.2703,-2.4062,-0.237,-0.0248,-0.3587,-0.1455
-8.9519,-2.3272,0.1867,-0.0205,-0.4239,-0.1588
-8.8178,-2.4157,0.3184,-0.0136,-0.377,-0.1482
-9.2751,-2.5905,0.4453,-0.0285,-0.3706,-0.1703
-9.2536,-2.6504,0.2514,-0.0749,-0.4189,-0.2161
-9.0573,-2.6863,-0.3376,-0.1346,-0.4359,-0.2206
-8.8083,-2.5522,-1.1588,-0.1801,-0.4615,-0.206
-8.4683,-2.4373,-1.64,-0.2108,-0.4866,-0.2196
-8.3749,-2.4349,-1.7741,-0.2257,-0.5017,-0.23
-8.5353,-2.6145,-2.3487,-0.2268,-0.5804,-0.222
-8.2935,-2.7007,-1.8771,-0.1812,-0.6797,-0.2153
-8.4372,-2.7222,-1.3743,-0.0834,-0.6715,-0.2126
-8.8849,-2.7031,-1.0104,0.0274,-0.6989,-0.2225
-8.9711,-2.8084,-1.2378,0.0991,-0.7338,-0.2164
-8.8681,-2.8204,-1.5203,0.1871,-0.684,-0.1865
-9.0908,-2.794,-1.664,0.2766,-0.6057,-0.1234
-9.1722,-2.8419,-2.1261,0.3379,-0.5385,-0.0701
-8.7125,-2.8419,-2.2218,0.3621,-0.3869,-0.0482
-8.7867,-2.7007,-2.4301,0.4157,-0.243,-0.0176
-8.2097,-2.4301,-2.5474,0.4157,-0.2161,0.0216
-8.1762,-2.1165,-2.9353,0.4096,-0.2044,0.0671
-7.8602,-1.6616,-3.4429,0.4628,-0.2449,0.0978
-8.4851,-1.4126,-3.8499,0.5692,-0.1852,0.1122
-8.6838,-1.5419,-3.9816,0.7016,-0.1958,0.1396
-8.4659,-1.4054,-3.9409,0.8186,-0.1692,0.1884
-7.8506,-1.2905,-3.7589,0.8471,-0.1641,0.239
-7.8937,-1.4413,-3.644,0.8697,-0.1402,0.2739
-8.2265,-1.3934,-3.1005,0.9625,-0.1138,0.3118
-8.2384,-1.4772,-3.0143,1.1053,-0.1082,0.3712
-8.2528,-1.652,-2.3655,1.2111,-0.0853,0.3874
-7.6351,-1.3264,-1.5658,1.2486,-0.1631,0.3659
-8.3462,-1.7885,-1.6305,1.2641,-0.1913,0.3736
-9.0525,-1.8699,-1.3168,1.2452,-0.2851,0.3667
-9.177,-1.7597,-1.1708,1.1293,-0.3126,0.3293
-8.916,-1.8579,-1.3599,1.0325,-0.3536,0.3051
-8.1211,-1.8148,-1.3743,1.0272,-0.3301,0.3184
-7.944,-1.6352,-1.1588,1.0211,-0.3733,0.3272
-7.9727,-1.5275,-1.3743,0.9918,-0.4285,0.3453
-8.3821,-1.391,-1.1253,0.999,-0.3994,0.3722
-8.9423,-1.2617,-1.257,0.975,-0.2902,0.3792
-9.4092,-1.2594,-1.166,0.9537,-0.1559,0.3826
-9.2129,-1.324,-0.9649,0.9132,-0.0949,0.4045
-8.8849,-1.2833,-0.3855,0.862,-0.0997,0.4151
-8.734,-1.3048,0.1628,0.8236,-0.1236,0.3957
-8.904,-1.391,0.3615,0.7805,-0.146,0.381
-9.0884,-1.573,0.328,0.7304,-0.1759,0.3714
-8.7173,-1.6735,0.9529,0.6907,-0.2038,0.3573
-8.9974,-1.652,1.1827,0.6118,-0.2308,0.3312
-9.4332,-1.5323,1.0415,0.5393,-0.2681,0.2966
-9.6582,-1.3479,1.063,0.4796,-0.2755,0.2515
-9.6774,-1.2665,0.7877,0.4295,-0.2904,0.207
-9.5241,-1.154,0.577,0.3624,-0.2947,0.1615
-9.3948,-0.996,0.395,0.3243,-0.304,0.1196
-9.2464,-0.9864,0.261,0.2998,-0.3056,0.0869
-9.5768,-1.0654,0.1484,0.259,-0.2483,0.0674
-10.1873,-1.1803,0.4357,0.222,-0.1138,0.0608
-10.1801,-1.3408,0.7326,0.1745,0.0402,0.0514
-9.6558,-1.4676,1.142,0.113,0.1282,0.0456
-9.0477,-1.6257,1.561,0.0533,0.1362,0.0418
-8.8514,-1.7933,1.7382,-0.0141,0.1167,0.0288
-9.0597,-1.6807,1.5395,-0.0669,0.0901,0.0075
-8.8992,-1.5897,1.3336,-0.0919,0.033,-0.0104
-8.339,-1.5514,1.3264,-0.1069,-0.0562,-0.029
-8.1547,-1.5945,1.221,-0.1204,-0.1676,-0.0405
-8.3869,-1.664,0.9768,-0.1298,-0.2625,-0.0453
-8.7652,-1.6328,0.7733,-0.1343,-0.3035,-0.0445
-8.9854,-1.6951,0.7733,-0.1292,-0.2926,-0.0477
-8.9328,-1.7334,0.6871,-0.1354,-0.2657,-0.0514
-8.7053,-1.7382,0.7302,-0.1452,-0.2286,-0.0581
-8.6,-1.7262,0.6752,-0.1551,-0.1887,-0.0589
-8.497,-1.6951,0.4812,-0.1689,-0.1575,-0.0629
-8.4036,-1.5874,0.3376,-0.1879,-0.1482,-0.0663
-8.351,-1.47,0.249,-0.218,-0.146,-0.0757
-8.406,-1.3743,0.1939,-0.2462,-0.154,-0.0839
-8.3629,-1.3695,0.0814,-0.2747,-0.1569,-0.0975
-8.4922,-1.3671,0.0359,-0.3022,-0.1324,-0.1058
-8.7604,-1.3838,-0.0359,-0.3336,-0.0887,-0.1045
-9.2033,-1.4198,-0.158,-0.3688,-0.0285,-0.0949
-9.5816,-1.4772,-0.2035,-0.4045,0.0282,-0.0837
-9.9,-1.4724,-0.4094,-0.4567,0.0973,-0.081
-10.2687,-1.6137,-0.2682,-0.5329,0.1202,-0.0813
-10.4698,-1.8747,0.0335,-0.6382,0.1362,-0.0877
-10.6518,-2.1284,0.6201,-0.7437,0.1476,-0.1119
-10.7236,-2.3296,1.1923,-0.837,0.1748,-0.1303
-10.5297,-2.4014,1.3408,-0.8836,0.2441,-0.1498
-10.2879,-2.3391,1.1851,-0.8817,0.324,-0.1753
-10.0006,-2.229,1.0391,-0.8623,0.3624,-0.1985
-9.4188,-2.1213,0.8715,-0.8103,0.3549,-0.203
-8.8873,-1.9872,0.5938,-0.752,0.3624,-0.1969
-8.7652,-1.8076,0.0862,-0.7109,0.3395,-0.1841
-8.8226,-1.6592,-0.498,-0.6662,0.2689,-0.1687
-8.5186,-1.5083,-1.0295,-0.6094,0.1753,-0.1703
-8.3869,-1.4126,-1.4006,-0.5534,0.1138,-0.1532
-8.4731,-1.415,-1.8148,-0.5012,0.0725,-0.1106
-8.5018,-1.5251,-2.0901,-0.4415,0.0434,-0.0717
-8.521,-1.5706,-2.5259,-0.3826,0.037,-0.044
-8.734,-1.7573,-2.7773,-0.2992,0.0349,-0.0003
-8.9184,-1.8268,-2.9233,-0.2321,0.0269,0.0389
-9.165,-1.9992,-2.9664,-0.2217,0.0309,0.0714
-9.335,-2.0734,-2.8467,-0.2382,0.0727,0.0914
-9.3709,-2.0734,-2.8491,-0.2467,0.1511,0.0919
-9.4116,-2.0853,-3.0813,-0.251,0.2185,0.0962
-9.5624,-2.2242,-2.8754,-0.319,0.227,0.1021
-9.7157,-2.3846,-1.8052,-0.4698,0.1503,0.0871
-9.6606,-2.4445,-0.5195,-0.5772,0.1479,0.0618
-10.0533,-2.2889,0.2514,-0.5609,0.3,0.0384
-10.8793,-2.3798,1.166,-0.5193,0.4349,0.037
-10.3142,-2.4373,2.0351,-0.4554,0.4413,0.0013
-8.6526,-2.4325,2.7821,-0.4247,0.5007,0.0165
-7.5417,-2.1715,2.2865,-0.4162,0.6147,0.0293
-7.2999,-1.7645,1.2091,-0.3896,0.6091,0.0605
-7.1491,-1.47,0.1652,-0.3363,0.4578,0.0842
-7.1874,-1.1923,-0.6416,-0.2665,0.3384,0.0445
-7.4771,-1.1253,-1.0151,-0.1847,0.2633,0.0163
-7.8243,-1.2929,-1.3647,-0.089,0.2316,0.0045
-8.3989,-1.9082,-1.5419,0.0152,0.2451,0.0733
-8.7412,-2.0542,-1.5826,0.1119,0.2654,0.0578
-9.2943,-2.4062,-1.312,0.1234,0.2928,-0.0152
-9.4068,-2.4804,-1.0439,0.0693,0.34,-0.0608
-9.8019,-2.7031,-1.0654,0.0064,0.4413,-0.0709
-10.3382,-2.5546,-1.0295,-0.0863,0.5004,-0.0594
-10.4722,-2.4852,-0.5674,-0.2486,0.518,-0.0962
-10.4986,-2.2577,0.1748,-0.3461,0.6222,-0.145
-10.8936,-2.0877,0.8092,-0.3443,0.7642,-0.146
-10.7571,-1.8723,0.9146,-0.3176,0.8588,-0.1593
-10.2735,-1.8531,0.644,-0.3437,0.9526,-0.2052
-9.6917,-2.0279,0.6776,-0.4013,0.9443,-0.2062
-8.8681,-2.0901,0.5387,-0.4615,0.8937,-0.1817
-8.2815,-1.968,-0.067,-0.5143,0.7959,-0.1423
-7.8626,-1.8771,-0.7518,-0.546,0.7067,-0.1047
-7.7907,-1.6999,-1.3503,-0.5215,0.6446,-0.0906
-7.8123,-1.6017,-1.7885,-0.4565,0.5729,-0.0789
-7.7524,-1.7047,-1.9776,-0.3648,0.489,-0.0722
-7.6758,-1.7813,-2.1332,-0.2718,0.3688,-0.0775
-7.5561,-1.8507,-2.4948,-0.1935,0.2382,-0.0853
-7.6926,-1.9896,-2.806,-0.1287,0.114,-0.0829
-8.0014,-2.0207,-2.7318,-0.0666,0.0032,-0.0682
-8.3821,-2.1213,-2.7821,-0.0317,-0.0735,-0.0719
-8.6814,-2.0806,-2.7318,-0.0109,-0.0954,-0.0741
-8.9519,-2.0039,-2.5618,0.016,-0.0679,-0.0586
-9.165,-1.9752,-2.375,0.0384,-0.037,-0.0368
-9.1698,-1.9513,-2.3966,0.0416,-0.0053,-0.0093
-9.2105,-1.9537,-2.3296,0.0354,0.0272,0.0139
-9.323,-1.9585,-2.3846,0.0189,0.0589,0.0312
-9.3589,-1.9273,-2.4205,-0.0019,0.0781,0.0453
-9.2823,-1.901,-2.3727,-0.0218,0.0946,0.0568
-9.1985,-1.8675,-2.241,-0.0274,0.1116,0.0671
-9.1794,-1.7933,-2.1691,-0.0338,0.1186,0.0687
-9.098,-1.7789,-2.2673,-0.048,0.093,0.0658
-8.904,-1.7262,-2.2146,-0.0602,0.0661,0.0661
-8.7604,-1.731,-2.1069,-0.0584,0.0687,0.0655
-8.6335,-1.6855,-1.8435,-0.0432,0.0871,0.0576
-8.6766,-1.7095,-1.7454,-0.0256,0.1034,0.0408
-8.6263,-1.731,-1.6975,-0.0128,0.1103,0.0282
-8.6119,-1.8148,-1.6759,-0.0112,0.1143,0.0274
-8.5617,-1.7262,-1.6831,-0.0051,0.118,0.0197
-8.6574,-1.6735,-1.7142,0.0109,0.1236,0.0144
-8.6024,-1.6903,-1.7765,0.029,0.1266,0.0197
-8.7149,-1.743,-1.8076,0.045,0.1268,0.0173
-8.7891,-1.8244,-1.8603,0.0509,0.1108,0.0149
-8.8131,-1.8771,-1.9489,0.049,0.0879,0.0213
-8.8825,-1.8771,-1.9201,0.036,0.0586,0.0248
-8.9591,-1.8507,-1.9441,0.0293,0.0288,0.0264
-8.9807,-1.7645,-2.0614,0.0309,0.0136,0.0274
-9.1219,-1.7597,-1.9848,0.0306,0.0168,0.032
-9.0429,-1.7526,-2.0159,0.0187,-0.004,0.0368
-9.0237,-1.7693,-1.9704,0.0229,0.0344,0.0384
-8.9998,-1.8364,-1.8244,0.0203,0.0261,0.0472
-9.0764,-1.7861,-1.7047,0.0141,0.037,0.0488
-8.9591,-1.7861,-1.7741,0.0064,0.0442,0.0477
-8.9543,-1.8004,-1.822,0.004,0.053,0.0448
-8.9447,-1.8292,-1.7933,0.0099,0.0626,0.0458
-8.8466,-1.8627,-1.8268,0.0171,0.0695,0.0464
-8.9256,-1.8627,-1.7502,0.0165,0.0592,0.0418
-8.9687,-1.9058,-1.6664,0.0107,0.0453,0.0298
-9.0357,-1.8794,-1.7861,0.0099,0.0344,0.0189
-9.0357,-1.8938,-1.7549,0.016,0.0258,0.016
-9.0716,-1.8747,-1.7142,0.0218,0.0115,0.0107
-8.9974,-1.889,-1.731,0.0304,-0.0037,0.0061
-8.9807,-1.8794,-1.7454,0.0408,-0.0176,0.004
-8.8921,-1.9082,-1.664,0.048,-0.0248,0.0035
-8.9926,-1.9441,-1.5802,0.0517,-0.0285,0.0051
-9.0501,-1.9297,-1.5706,0.0461,-0.0418,0.0067
-9.1913,-1.9393,-1.6735,0.0394,-0.0493,0.0069
-9.2057,-1.9082,-1.7382,0.0336,-0.0426,0.0085
-9.1794,-1.8914,-1.7837,0.0333,-0.0272,0.0125
-9.1411,-1.8603,-1.8675,0.0357,-0.0149,0.0165
-9.0692,-1.8531,-1.98,0.0397,0.0005,0.0176
-9.0237,-1.8651,-2.0159,0.0464,0.0091,0.0192
-9.0621,-1.8627,-2.0806,0.0488,-0.0024,0.0205
-9.0214,-1.8747,-2.1189,0.0498,-0.0117,0.0187
-9.0477,-1.8507,-1.9585,0.0544,-0.0131,0.0163
-8.983,-1.8124,-1.7406,0.0557,-0.0218,0.0149
-8.9615,-1.8411,-1.5658,0.0581,-0.0117,0.0112
-8.9208,-1.8507,-1.4222,0.0592,-0.0123,0.0056
-8.995,-1.8723,-1.4341,0.0568,-0.0333,0.0024
-8.9854,-1.9225,-1.5634,0.0522,-0.0669,-0.004
-9.0094,-1.889,-1.6616,0.0506,-0.0821,-0.0109
-9.1028,-1.8771,-1.6544,0.0477,-0.101,-0.0189
-8.9854,-1.8292,-1.6903,0.053,-0.1122,-0.0203
-9.1506,-1.8316,-1.6999,0.0624,-0.1148,-0.0205
-8.9974,-1.7933,-1.6472,0.065,-0.1386,-0.0224
-8.9543,-1.834,-1.7238,0.0693,-0.1428,-0.024
-8.8657,-1.8435,-1.7047,0.0727,-0.1442,-0.0237
-8.9423,-1.7957,-1.5802,0.0826,-0.1404,-0.0211
-9.1004,-1.7741,-1.2977,0.0802,-0.1684,-0.0256
-9.2081,-1.7813,-1.1756,0.0751,-0.1895,-0.0272
-9.1794,-1.8292,-1.221,0.0738,-0.1788,-0.0261
-9.1075,-1.8986,-1.2594,0.0778,-0.137,-0.0229
-9.1219,-1.9872,-1.3575,0.0711,-0.1082,-0.0221
-8.9471,-1.9728,-1.2617,0.0573,-0.1111,-0.0197
-8.8155,-1.9369,-1.1899,0.0354,-0.1226,-0.0221
-8.8921,-1.8483,-1.3479,0.0309,-0.1359,-0.02
-8.7771,-1.8866,-1.4581,0.0288,-0.1687,-0.0192
-8.6862,-1.9345,-1.5945,0.032,-0.1577,-0.0155
-8.8969,-1.9249,-1.6472,0.0445,-0.1692,-0.0141
-8.9878,-1.9393,-1.7454,0.0536,-0.2126,-0.0149
-9.074,-1.9872,-1.719,0.0552,-0.2614,-0.012
-9.086,-2.0494,-1.6448,0.0445,-0.3131,-0.0067
-9.1506,-2.0925,-1.3958,0.0226,-0.3595,-0.0032
-9.2057,-2.15,-1.1205,0.0008,-0.3706,-0.0091
-9.2608,-2.0782,-0.7039,-0.0019,-0.3714,-0.0187
-9.2847,-2.0925,-0.577,0.0053,-0.3829,-0.0171
-9.0932,-2.1093,-0.5028,0.0043,-0.3901,-0.0096
-8.7819,-2.1979,-0.5387,-0.0037,-0.3424,-0.0168
-8.7771,-2.1237,-0.6177,-0.0064,-0.3317,-0.0381
-8.6215,-2.1213,-0.577,-0.0165,-0.3675,-0.0498
-8.7149,-2.0399,-0.51,-0.0136,-0.4346,-0.0472
-8.7436,-1.9824,-0.656,-0.0008,-0.4986,-0.048
-9.0932,-2.0853,-0.9529,0.0117,-0.4884,-0.0759
-9.2081,-2.3152,-1.142,0.0051,-0.5444,-0.0997
-8.8178,-2.387,-0.7685,0.0296,-0.6211,-0.0973
-8.5234,-2.4756,-0.5028,0.0589,-0.6294,-0.0925
-8.9902,-2.5953,-0.0431,0.0389,-0.6033,-0.1455
-9.4595,-2.7126,0.1317,-0.0501,-0.6603,-0.226
-9.6654,-2.7078,-0.4429,-0.1556,-0.728,-0.2633
-9.6845,-2.6552,-1.0774,-0.2276,-0.7645,-0.255
-9.7971,-2.4541,-1.6041,-0.2153,-0.7719,-0.2222
-9.6822,-2.3008,-1.9441,-0.1759,-0.7584,-0.2233
-9.086,-2.2673,-2.2505,-0.0919,-0.6155,-0.2129
-8.7053,-2.0734,-2.7031,0.0786,-0.4455,-0.1593
-8.5856,-2.1428,-3.1603,0.1972,-0.3853,-0.1039
-8.7963,-2.3248,-2.7246,0.2563,-0.4413,-0.0781
-8.7556,-2.4972,-2.1763,0.3035,-0.5918,-0.0842
-8.4276,-2.5426,-1.1564,0.3285,-0.6145,-0.0749
-8.3749,-2.4804,-0.814,0.3357,-0.5223,-0.0552
-8.4635,-2.478,-1.3982,0.3656,-0.4245,-0.0123
-8.5736,-2.2458,-2.2841,0.3818,-0.417,0.0171
-8.3917,-1.9585,-2.8299,0.4154,-0.4245,0.037
-7.9799,-1.6017,-2.7749,0.4546,-0.3453,0.0517
-8.6072,-1.4796,-3.0047,0.5212,-0.2302,0.0565
-8.6957,-1.3144,-2.8276,0.6033,-0.2755,0.1007
-8.7747,-1.2977,-3.0239,0.6896,-0.219,0.1519
-8.9304,-1.3838,-2.5738,0.7584,-0.1908,0.1593
-8.3103,-1.5514,-2.2601,0.8231,-0.1506,0.1551
-8.5042,-1.6161,-2.0997,0.8607,-0.0917,0.1903
-8.8681,-1.5371,-1.913,0.9185,-0.1188,0.2132
-8.8155,-1.6137,-1.9465,0.9683,-0.1442,0.2438
-8.576,-1.5658,-1.5514,1.0275,-0.1418,0.231
-8.5162,-1.6688,-1.4413,1.0392,-0.1564,0.2454
-8.6526,-1.6185,-1.5993,1.0523,-0.1055,0.2529
-8.8418,-1.8411,-1.3886,1.0981,-0.0823,0.2801
-8.8274,-1.7789,-0.7901,1.121,-0.0741,0.2854
-8.8969,-2.0351,-0.7757,0.9888,-0.1047,0.2809
-8.8753,-1.9632,-0.7614,0.9012,-0.1338,0.2654
-8.6287,-1.889,-0.8499,0.8716,-0.1482,0.2582
-8.3414,-1.7502,-0.8092,0.8855,-0.1836,0.2627
-8.3534,-1.585,-0.7805,0.8548,-0.2534,0.275
-8.7987,-1.573,-1.0918,0.8428,-0.2665,0.2886
-9.1842,-1.3647,-0.8882,0.8351,-0.284,0.2923
-9.493,-1.3575,-0.8332,0.8324,-0.2705,0.2928
-9.6151,-1.3791,-0.7661,0.7965,-0.2526,0.2899
-9.7564,-1.4222,-0.5794,0.7682,-0.2246,0.2859
-9.7276,-1.4605,-0.419,0.7306,-0.2169,0.2846
-9.5265,-1.5419,0.0718,0.6779,-0.251,0.2856
-9.4451,-1.573,0.3735,0.6169,-0.3238,0.2817
-9.7109,-1.6017,0.5435,0.5689,-0.389,0.2651
-9.7492,-1.4988,0.6512,0.5193,-0.4421,0.2361
-10.0413,-1.3384,0.5483,0.4786,-0.4687,0.1905
-10.0365,-1.2522,0.644,0.4367,-0.506,0.1503
-9.6965,-1.2594,0.8499,0.3845,-0.5377,0.117
-9.3422,-1.2977,1.0319,0.3224,-0.5724,0.0853
-9.086,-1.3216,1.1109,0.2614,-0.6472,0.0554
-8.837,-1.2665,1.1732,0.1996,-0.7202,0.0221
-8.825,-1.3072,1.4413,0.1463,-0.7738,0.0016
-8.746,-1.4868,1.8579,0.1095,-0.7429,-0.0192
-8.7436,-1.6592,2.2194,0.0719,-0.647,-0.0453
-8.7508,-1.6903,2.1668,0.0336,-0.5095,-0.0642
-8.7029,-1.5419,1.7909,-0.0107,-0.3448,-0.0781
-8.5808,-1.4102,1.3695,-0.0336,-0.1727,-0.0799
-8.6838,-1.2761,0.996,-0.0504,0.0077,-0.0783
-8.7819,-1.1803,0.905,-0.0645,0.1855,-0.073
-8.7628,-1.1779,0.9337,-0.0791,0.3464,-0.0674
-8.8657,-1.3312,1.075,-0.0965,0.4871,-0.0648
-9.0429,-1.4988,1.1971,-0.1372,0.5995,-0.0682
-9.2847,-1.5275,1.2163,-0.1937,0.6912,-0.0698
-9.3111,-1.5275,1.1779,-0.2486,0.7386,-0.077
-9.1075,-1.6209,1.0678,-0.292,0.7075,-0.0847
-8.8681,-1.6831,1.2043,-0.3371,0.5865,-0.0959
-8.8226,-1.7478,1.1181,-0.3778,0.408,-0.1095
-8.9711,-1.7262,0.905,-0.404,0.2169,-0.1319
-8.8825,-1.7693,0.6632,-0.4255,-0.02,-0.158
-8.4851,-1.7334,0.565,-0.458,-0.2888,-0.1844
-8.327,-1.7526,0.5962,-0.4887,-0.55,-0.2166
-8.1977,-1.7047,0.5363,-0.4972,-0.7682,-0.2507
-8.3294,-1.719,0.4956,-0.4999,-0.9193,-0.2731
-8.5234,-1.81,0.4046,-0.5084,-0.9886,-0.2771
-8.7221,-1.8268,0.3567,-0.5169,-0.9729,-0.2723
-8.7676,-1.8172,0.2394,-0.5199,-0.9052,-0.2659
-8.7173,-1.6975,0.2227,-0.5113,-0.7941,-0.243
-8.6646,-1.7166,0.1365,-0.4978,-0.6736,-0.2121
-8.7245,-1.6424,0.0168,-0.5025,-0.5303,-0.1879
-8.734,-1.6544,-0.3041,-0.4831,-0.3874,-0.1593
-8.691,-1.5467,-0.4836,-0.4572,-0.1966,-0.114
-9.1794,-1.5658,-0.6704,-0.4327,0.0378,-0.0671
-9.5577,-1.5969,-0.9505,-0.4285,0.2009,-0.025
-9.9,-1.8866,-1.3982,-0.5191,0.2558,-0.0104
-9.6893,-2.2553,-0.6776,-0.7218,0.1876,-0.0213
-9.3637,-2.2889,0.2155,-0.8545,0.1951,-0.0213
-9.4571,-2.2673,0.9098,-0.8527,0.2619,-0.024
-9.675,-2.2913,1.4653,-0.8196,0.3102,-0.0514
-9.7659,-2.5091,1.4772,-0.7991,0.381,-0.0717
-9.6702,-2.6073,1.3527,-0.7906,0.4431,-0.0887
-9.4882,-2.466,0.893,-0.8005,0.4983,-0.1082
-9.3613,-2.1715,0.3065,-0.8045,0.5225,-0.1234
-9.2512,-1.901,-0.2418,-0.7709,0.4959,-0.122
-9.0764,-1.6855,-0.8092,-0.7141,0.4716,-0.1196
-8.9447,-1.6209,-1.3671,-0.6518,0.4389,-0.1154
-8.7173,-1.5299,-1.9249,-0.5793,0.3992,-0.118
-8.3821,-1.4581,-2.4086,-0.5124,0.3589,-0.1103
-8.1977,-1.4461,-2.8946,-0.433,0.2992,-0.0842
-8.1163,-1.5419,-2.9951,-0.3523,0.2414,-0.036
-8.1834,-1.6759,-3.1484,-0.2976,0.2108,0.0043
-8.2528,-1.7765,-3.4285,-0.2574,0.2233,0.0352
-8.3749,-1.8651,-3.6081,-0.2113,0.2372,0.0903
-8.4779,-1.9417,-3.6703,-0.1857,0.2483,0.1455
-8.6862,-2.2146,-3.2226,-0.2044,0.2403,0.1692
-8.5569,-2.3774,-2.1452,-0.2558,0.247,0.1753
-8.8466,-2.4157,-1.4102,-0.2926,0.3238,0.1998
-9.5002,-2.5618,-0.8404,-0.3349,0.2971,0.2105
-9.1626,-2.8443,0.8068,-0.3677,0.1343,0.21
-8.2672,-2.7126,2.4301,-0.3706,0.1055,0.2225
-7.7117,-2.4373,3.2872,-0.3568,0.1982,0.2268
-7.9416,-2.49,3.3782,-0.3712,0.3347,0.2422
-8.1403,-2.047,2.8443,-0.3544,0.299,0.1783
-8.1977,-1.7741,2.3296,-0.3688,0.2646,0.0903
-8.3582,-1.5323,1.6185,-0.3451,0.2321,0.0565
-8.6503,-1.4437,0.6057,-0.3043,0.2707,0.0333
-9.1818,-1.64,-0.3017,-0.2284,0.3533,0.0115
-9.3254,-1.7669,-0.7422,-0.1396,0.4551,-0.0141
-9.2991,-1.9058,-1.0271,-0.0719,0.5625,-0.045
-9.1315,-2.2027,-1.3503,-0.0376,0.6944,-0.0794
-9.1913,-2.4038,-1.7406,-0.0163,0.7882,-0.0786
-9.4523,-2.5666,-1.8794,-0.0346,0.8058,-0.0618
-9.5313,-2.5402,-1.822,-0.0973,0.7101,-0.0698
-9.3661,-2.3248,-1.166,-0.1452,0.6406,-0.0983
-9.7133,-2.0542,-0.6345,-0.1386,0.6078,-0.1108
-9.9383,-2.0375,-0.3089,-0.1212,0.5556,-0.1053
-10.1155,-2.0614,-0.1772,-0.125,0.5337,-0.0909
-10.0963,-2.1715,0.0215,-0.1719,0.4895,-0.0589
-9.6486,-2.2529,-0.0838,-0.226,0.4303,-0.0368
-9.3637,-2.1811,-0.5626,-0.267,0.4151,-0.0197
-9.2081,-2.0063,-1.0846,-0.2848,0.3898,0.0112
-8.9423,-1.8435,-1.7621,-0.275,0.3837,0.0597
-8.5952,-1.6472,-2.162,-0.2284,0.4077,0.0959
-8.5258,-1.6113,-2.3655,-0.1671,0.3944,0.1191
-8.2049,-1.7214,-2.5546,-0.1042,0.2998,0.1561
-7.999,-1.7621,-2.6312,-0.0306,0.2353,0.1628
-8.1954,-1.6999,-2.5211,0.0408,0.1943,0.1314
-8.5042,-1.8938,-2.4253,0.0853,0.0925,0.1415
-8.5545,-2.0111,-2.2051,0.1138,0.0189,0.1663
-8.9256,-1.9992,-2.0734,0.138,0.0037,0.1615
-9.232,-2.0183,-1.8699,0.1575,0.0024,0.1639
-9.4092,-1.9034,-1.6113,0.1735,0.0562,0.1657
-9.6869,-1.834,-1.4341,0.1612,0.125,0.1575
-9.8138,-1.8866,-1.3862,0.1215,0.1647,0.1428
-9.7851,-1.9154,-1.3551,0.0746,0.1868,0.125
-9.6869,-1.8938,-1.1827,0.0365,0.2044,0.1135
-9.596,-1.8483,-0.9649,0.0053,0.2222,0.0949
-9.5888,-1.7861,-1.0702,-0.0197,0.2278,0.073
-9.4643,-1.719,-1.1157,-0.044,0.2134,0.0597
-9.2081,-1.6664,-1.3455,-0.0586,0.226,0.0533
-9.0764,-1.5969,-1.5802,-0.0669,0.2694,0.0418
-8.9615,-1.5562,-1.8866,-0.0501,0.2947,0.0304
-8.8777,-1.549,-2.0542,-0.0208,0.3118,0.024
-8.6694,-1.5945,-2.1069,0.004,0.3067,0.0139
-8.6287,-1.6975,-2.0758,0.0264,0.2998,-0.0051
-8.6095,-1.7286,-1.9848,0.033,0.2587,-0.0203
-8.6574,-1.7238,-1.7621,0.0293,0.2177,-0.0272
-8.7532,-1.7166,-1.5969,0.0248,0.1751,-0.0322
-8.77,-1.6927,-1.4844,0.0208,0.1394,-0.0365
-8.9399,-1.7286,-1.4078,0.0242,0.1231,-0.0402
-9.0094,-1.7358,-1.3527,0.0258,0.0999,-0.0293
-9.0381,-1.8004,-1.2617,0.0184,0.0903,-0.0203
-9.1267,-1.834,-1.2881,0.0112,0.1029,-0.0136
-9.177,-1.8603,-1.2067,-0.0011,0.1124,-0.0104
-9.153,-1.8962,-1.1732,-0.0176,0.1167,-0.0083
-9.0812,-1.8699,-1.2378,-0.0221,0.1244,-0.0008
-9.0142,-1.8555,-1.3384,-0.0226,0.1383,0.0045
-8.8753,-1.8579,-1.4653,-0.0237,0.1346,-0.0019
-8.7125,-1.8818,-1.6185,-0.0147,0.129,-0.0032
-8.6215,-1.8675,-1.834,-0.0096,0.1055,-0.0048
-8.6335,-1.8675,-1.9082,-0.0091,0.0815,-0.0096
-8.7843,-1.8842,-1.9656,-0.004,0.0597,-0.0133
-8.8274,-1.9225,-2.0231,0.0075,0.0309,-0.02
-8.8849,-1.901,-1.8914,0.0277,0.0229,-0.0221
-8.9423,-1.9154,-1.7238,0.0386,0.0107,-0.0195
-9.0046,-1.9632,-1.5251,0.0437,0.0096,-0.0189
-9.0716,-2.0303,-1.4964,0.0421,0.0099,-0.0179
-9.0405,-1.968,-1.3455,0.0373,0.0163,-0.0123
-9.019,-1.9609,-1.3503,0.0349,0.0115,-0.0053
-8.9807,-1.9489,-1.391,0.036,0.0093,0.0027
-8.9543,-1.9345,-1.4581,0.0301,-0.0029,0.0072
-8.9447,-1.8818,-1.4269,0.0253,-0.0179,0.0125
-8.9423,-1.9058,-1.4509,0.0179,-0.0296,0.0165
-8.9711,-1.8627,-1.5036,0.0163,-0.0365,0.016
-8.9016,-1.9154,-1.549,0.0232,-0.045,0.02
-8.8346,-1.8675,-1.7238,0.024,-0.0453,0.0192
-8.7939,-1.8459,-1.8076,0.0211,-0.0426,0.0123
-8.8418,-1.822,-1.8555,0.0258,-0.0461,0.0107
-8.9112,-1.7741,-1.9776,0.0328,-0.0482,0.0141
-9.1051,-1.7861,-1.913,0.0341,-0.0442,0.0125
-9.1674,-1.7597,-1.7023,0.0378,-0.0349,0.0104
-9.256,-1.7573,-1.4485,0.0461,-0.0072,0.0037
-9.3374,-1.8172,-1.4748,0.0557,0.0171,-0.0005
-9.1818,-1.834,-1.561,0.0576,0.0354,0.0013
-8.9543,-1.9082,-1.5371,0.0597,0.0485,0.0048
-8.9376,-1.9154,-1.4796,0.057,0.0512,0.0024
-8.849,-1.8771,-1.3168,0.053,0.0155,-0.0003
-8.8346,-1.7885,-1.3431,0.048,-0.0163,-0.0048
-8.9304,-1.8124,-1.3886,0.0437,-0.044,-0.0056
-8.7867,-1.8196,-1.3575,0.0442,-0.0687,-0.0045
-8.6694,-1.8699,-1.0463,0.0477,-0.0634,-0.0155
-8.8514,-1.8771,-0.6536,0.0504,-0.0994,-0.0424
-8.8801,-1.901,-0.5435,0.045,-0.15,-0.0674
-9.1674,-1.9968,-0.5746,0.0242,-0.1873,-0.0789
-9.3518,-2.0901,-0.5243,-0.0051,-0.2214,-0.0839
-9.4308,-2.0518,-0.5148,-0.0224,-0.2124,-0.0962
-9.596,-2.0494,-0.4094,-0.0117,-0.2094,-0.1026
-9.5553,-2.0183,-0.3089,0.0035,-0.1932,-0.1095
-9.5912,-2.162,-0.5219,-0.0032,-0.158,-0.1156
-9.3087,-2.2673,-0.7087,-0.036,-0.1543,-0.1114
-9.1482,-2.2865,-1.1636,-0.0626,-0.1609,-0.0994
-8.8969,-2.3272,-1.5802,-0.0994,-0.2289,-0.0975
-8.7795,-2.3655,-1.5993,-0.1268,-0.292,-0.1079
-8.9016,-2.2577,-1.4078,-0.125,-0.3672,-0.1202
-9.1099,-2.1572,-1.1612,-0.0986,-0.489,-0.1322
-9.1363,-2.2745,-0.7709,-0.0925,-0.6009,-0.1378
-9.0166,-2.5809,-0.6177,-0.0943,-0.6169,-0.1396
-9.0668,-2.7198,-0.2538,-0.1002,-0.5761,-0.1615
-9.1961,-2.7629,-0.1125,-0.1069,-0.5883,-0.1625
-9.1746,-2.6983,-0.6033,-0.0959,-0.6624,-0.125
-9.1746,-2.7821,-0.6608,-0.0893,-0.7096,-0.1007
-9.0309,-2.7869,-0.5219,-0.0402,-0.6638,-0.1143
-8.8538,-2.727,-0.7207,0.0141,-0.5478,-0.1404
-8.7676,-2.7126,-1.0654,0.0701,-0.5073,-0.126
-8.4348,-2.6791,-1.4126,0.1274,-0.5918,-0.0975
-8.3606,-2.7222,-1.3934,0.17,-0.716,-0.0698
-8.1906,-2.6671,-1.8794,0.2348,-0.8063,-0.0781
-8.1451,-2.6288,-3.0047,0.3714,-0.8479,-0.0741
-7.7093,-2.7294,-3.4453,0.494,-0.9529,-0.0608
-6.8881,-2.6408,-3.4692,0.5604,-0.9742,-0.0173
-7.173,-2.4253,-4.1587,0.6376,-0.9166,0.0453
-7.7596,-2.0039,-4.1899,0.6952,-0.8817,0.0911
-8.1044,-1.3743,-4.379,0.7242,-0.902,0.1127
-8.2959,-0.9601,-4.5753,0.7509,-0.7839,0.1356
-8.7867,-0.8116,-4.4963,0.8553,-0.648,0.1593
-8.9423,-0.5986,-4.2473,0.9742,-0.4482,0.2017
-9.4403,-0.9409,-3.8475,1.0754,-0.2345,0.2401
-9.1602,-1.1229,-3.3351,1.1098,-0.1055,0.2809
-9.0357,-1.4006,-2.9544,1.1245,-0.0221,0.3272
-8.7795,-1.5203,-2.1739,1.1418,-0.0477,0.3589
-8.3438,-1.5299,-1.2809,1.1274,-0.1069,0.3693
-8.509,-1.4557,-0.8284,1.1154,-0.1684,0.3922
-8.8418,-1.5395,-0.8308,1.2009,-0.1996,0.3997
-9.1602,-1.4437,-0.7901,1.2319,-0.2193,0.4061
-9.6247,-1.6161,-0.6105,1.2758,-0.2132,0.3786
-8.5425,-1.4676,-0.1652,1.2945,-0.332,0.3397
-8.157,-1.5443,-0.0168,1.2263,-0.4714,0.3056
-8.0469,-1.2665,-0.0192,1.1159,-0.6115,0.2646
-8.3294,-1.1923,-0.3519,1.068,-0.6302,0.2595
-8.9519,-0.9529,-0.7949,1.0861,-0.5191,0.2614
-9.0237,-0.917,-0.9194,1.1048,-0.3896,0.2761
-8.6407,-0.9074,-0.7494,1.1103,-0.2731,0.3022
-7.8602,-1.0127,-0.17,1.093,-0.1966,0.3453
-7.841,-1.2091,0.2131,1.064,-0.1212,0.4016
-8.1523,-1.4317,0.565,1.0365,-0.0786,0.4586
-8.3821,-1.5012,0.8284,0.9617,-0.0344,0.4932
-8.7963,-1.4509,0.984,0.8812,0.0019,0.5191
-9.086,-1.2857,1.1229,0.7975,0.0195,0.5204
-9.3948,-1.1827,1.0846,0.7261,0.0123,0.5087
-9.5744,-1.0319,0.8571,0.6528,-0.0288,0.4804
-9.7229,-0.8116,0.7087,0.5774,-0.064,0.4418
-10.0149,-0.5818,0.6536,0.5351,-0.0655,0.4
-10.5345,-0.5531,0.7159,0.5076,-0.0221,0.3608
-10.2663,-0.7278,0.7374,0.4549,0.0392,0.3171
-9.9096,-0.9649,0.9337,0.373,0.0477,0.2809
-9.3757,-1.1732,1.1564,0.2968,-0.0195,0.2686
-8.7532,-1.415,1.6113,0.2196,-0.1492,0.2553
-8.5569,-1.4796,2.0159,0.1375,-0.2718,0.222
-8.8705,-1.3815,2.0542,0.101,-0.3437,0.1852
-9.1411,-1.4509,1.901,0.0821,-0.3539,0.149
-9.0836,-1.4413,1.7621,0.0474,-0.3509,0.1079
-9.0644,-1.3623,1.561,0.0107,-0.32,0.0783
-9.0621,-1.221,1.1971,-0.0064,-0.2507,0.0573
-8.8777,-1.1037,0.996,-0.0152,-0.1599,0.0472
-8.5497,-1.0247,0.723,-0.0288,-0.0815,0.0429
-8.4204,-1.1253,0.6536,-0.0397,-0.0226,0.0426
-8.5856,-1.2258,0.6584,-0.0552,0.0376,0.0466
-8.995,-1.2857,0.7614,-0.0765,0.1098,0.048
-9.3709,-1.3455,0.8212,-0.0999,0.1956,0.0533
-9.7037,-1.4485,0.9481,-0.1271,0.2593,0.0496
-9.8593,-1.5467,1.0391,-0.1548,0.2803,0.0336
-9.6678,-1.6951,0.9912,-0.1799,0.2518,0.0139
-9.5481,-1.7621,0.9792,-0.2172,0.1793,-0.0088
-9.4954,-1.7238,0.7326,-0.2569,0.0608,-0.0338
-9.4523,-1.5658,0.6656,-0.2899,-0.0999,-0.0578
-9.3829,-1.415,0.6129,-0.3142,-0.247,-0.0869
-9.3661,-1.415,0.5602,-0.3349,-0.3765,-0.1236
-9.1889,-1.47,0.656,-0.356,-0.4978,-0.1415
-8.9639,-1.549,0.7063,-0.385,-0.6057,-0.1559
-8.7867,-1.6448,0.7374,-0.4247,-0.6467,-0.1657
-9.3087,-1.664,0.8691,-0.4125,-0.574,-0.1548
-9.6869,-1.6209,0.8619,-0.3922,-0.4575,-0.1343
-9.9,-1.6712,0.6488,-0.3834,-0.2886,-0.1426
-9.7875,-1.5874,0.431,-0.3917,-0.1431,-0.1649
-9.5122,-1.5131,0.237,-0.3829,-0.0341,-0.1783
-9.3733,-1.4605,-0.1508,-0.3592,0.0746,-0.1625
-9.5912,-1.391,-0.3376,-0.3214,0.1932,-0.1442
-9.8138,-1.3455,-0.6033,-0.2955,0.2944,-0.1327
-9.8354,-1.2857,-0.8428,-0.2774,0.3805,-0.1255
-9.845,-1.2234,-1.0056,-0.2742,0.4386,-0.1135
