ax,ay,az,gx,gy,gz
-9.165,-1.5706,-2.8826,0.0384,0.8087,0.0213
-9.232,-1.4676,-2.739,0.0298,0.8652,0.0165
-9.2201,-1.3408,-2.7773,0.0037,0.9118,0.0091
-9.2057,-1.3312,-2.6839,-0.0035,0.9723,0.0019
-9.347,-1.324,-2.6169,0.0064,1.0587,0.0003
-9.5768,-1.3527,-2.7342,0.0426,1.1708,-0.0045
-9.8258,-1.3096,-2.8874,0.0826,1.3334,-0.0059
-10.2496,-1.3934,-3.0981,0.1247,1.5625,-0.0091
-10.5489,-1.4748,-3.3686,0.1897,1.8594,-0.0029
-10.817,-1.6233,-3.7326,0.2886,2.2007,0.0088
-10.7763,-1.7047,-4.1946,0.3765,2.5215,0.0226
-10.0293,-1.9058,-4.537,0.4218,2.7803,0.0253
-8.849,-2.1548,-4.5753,0.4338,3.0393,0.0208
-8.3486,-2.162,-4.6567,0.4128,3.2394,0.0187
-8.2528,-2.0973,-4.9871,0.3501,3.2831,0.0237
-8.0158,-2.0973,-5.2241,0.2838,3.2732,0.0416
-8.406,-1.8387,-5.5881,0.2244,3.3433,0.0205
-8.5665,-1.5778,-5.6216,0.1881,3.3777,-0.0282
-8.5305,-1.3072,-5.5282,0.1527,3.5021,-0.0376
-8.6933,-1.4653,-5.2481,0.1753,3.6852,-0.0258
-8.77,-1.3384,-5.2648,0.2891,3.9047,0.0008
-8.6622,-1.3862,-5.7628,0.3768,4.1757,0.0397
-8.5545,-1.573,-6.2345,0.4684,4.5006,0.0949
-8.4563,-1.7023,-6.4643,0.5484,4.8733,0.1194
-8.327,-1.7741,-6.6104,0.5841,5.2893,0.1255
-8.327,-1.8723,-6.6894,0.5907,5.7529,0.1039
-8.0014,-1.9297,-6.5362,0.5945,6.2318,0.0882
-7.616,-2.0758,-6.28,0.6105,6.7439,0.0821
-7.4531,-2.2194,-6.122,0.6451,7.2973,0.1207
-6.754,-2.2625,-6.1555,0.6837,7.8276,0.1564
-6.1555,-2.3415,-6.0621,0.7032,8.4581,0.114
-5.9185,-2.0111,-6.0549,0.6494,8.7312,0.0967
-6.2249,-2.3272,-5.8035,0.5212,8.7312,0.0826
-5.1763,-2.32,-5.4875,0.4431,8.7312,0.016
-3.8618,-1.8076,-6.1483,0.3349,8.7312,-0.0674
-2.9161,-1.6999,-6.7325,0.1154,8.7312,-0.2388
-2.2649,-1.8507,-7.3143,-0.0935,8.7312,-0.4074
-1.9369,-2.399,-7.7285,-0.162,8.7312,-0.4218
-0.9361,-2.3272,-8.0086,-0.0719,8.7312,-0.2345
-0.2777,-1.9776,-8.1116,-0.0488,8.7312,-0.1167
0.2227,-1.81,-8.4467,-0.13,8.5103,-0.1308
0.4812,-1.6065,-9.1363,-0.2825,7.9504,-0.2321
0.7949,-1.5347,-9.9096,-0.4455,7.3456,-0.3139
0.759,-1.4126,-10.6518,-0.5423,6.7961,-0.3437
0.5171,-1.0223,-11.2887,-0.5223,6.2198,-0.3027
0.3376,-0.6895,-11.7651,-0.3997,5.6141,-0.2555
-0.0982,-0.4166,-12.3517,-0.2385,5.0774,-0.2137
-0.1556,-0.3304,-12.5336,-0.1007,4.52,-0.2033
-0.3304,-0.6656,-12.0548,0.118,4.2581,-0.2505
-0.3926,-1.3408,-11.1953,0.2193,3.8888,-0.2318
0.3352,-2.2122,-11.1091,0.1783,3.5869,-0.2435
0.8404,-2.6097,-11.3509,0.13,3.4813,-0.3435
1.2905,-2.411,-11.6598,0.0919,3.3289,-0.4117
1.9154,-2.9257,-10.5177,-0.0056,3.0518,-0.478
2.5235,-3.4692,-9.6582,0.0314,2.8365,-0.4319
2.3463,-3.4692,-9.4044,0.1207,2.6087,-0.3024
2.3272,-3.1508,-9.3805,0.0909,2.1978,-0.2462
1.9082,-2.9018,-9.3374,0.0133,1.7925,-0.2715
1.6017,-2.6073,-9.074,-0.016,1.3909,-0.2657
1.2115,-2.2889,-8.8035,-0.0099,1.2585,-0.1532
0.6991,-1.9393,-9.0573,0.0021,1.2036,-0.1148
0.3089,-1.7573,-9.4619,0.0288,1.3877,-0.1207
-0.1341,-2.0806,-8.8992,-0.0165,1.627,-0.0392
0.7853,-2.2434,-8.3366,-0.0941,1.804,-0.0512
1.9944,-2.399,-7.9057,-0.1825,2.0352,-0.1652
2.0925,-2.3104,-7.5753,-0.251,2.1903,-0.1804
2.4469,-2.0997,-7.4579,-0.3328,2.1328,-0.178
3.1723,-2.0423,-7.4484,-0.3906,2.0291,-0.1418
3.6105,-1.9369,-7.2832,-0.4053,1.9644,-0.1002
3.9265,-1.7837,-7.1778,-0.4125,1.8668,-0.0781
4.3527,-1.6161,-7.2784,-0.4418,1.7813,-0.0757
4.5155,-1.6376,-7.6662,-0.4804,1.6731,-0.0458
4.8363,-1.6041,-8.0852,-0.5145,1.4917,0.0192
5.2529,-1.5897,-8.4851,-0.5183,1.311,0.0602
5.43,-1.4389,-8.9854,-0.5137,1.1037,0.0706
5.3056,-1.3144,-9.6869,-0.4994,0.9156,0.0927
4.6902,-1.0367,-10.0963,-0.4658,0.6981,0.1132
4.5753,-0.8954,-10.3046,-0.4077,0.4954,0.1239
4.3551,-0.8667,-10.5273,-0.3323,0.3672,0.1348
3.9145,-0.8475,-10.5608,-0.2766,0.2638,0.1444
3.6248,-0.7638,-10.5896,-0.235,0.1551,0.1428
3.3998,-0.6632,-10.5153,-0.2113,0.0877,0.1362
3.1508,-0.68,-10.4411,-0.1844,0.0831,0.1362
3.0454,-0.5818,-10.4196,-0.1279,0.1207,0.1431
3.0143,-0.6249,-10.3573,-0.0927,0.1809,0.1553
3.1723,-0.7685,-10.2208,-0.0847,0.2377,0.1324
3.565,-0.8547,-10.0868,-0.0698,0.2998,0.1252
3.8666,-0.8499,-10.1634,-0.0544,0.3262,0.089
4.1635,-0.8691,-10.2592,-0.0242,0.3264,0.0746
4.2832,-0.9337,-10.2568,-0.0091,0.2587,0.0687
4.2425,-0.9649,-10.2113,-0.0016,0.17,0.0493
4.1731,-0.972,-10.2687,0.0019,0.0642,0.0381
3.9983,-0.8499,-10.1035,0.0037,-0.0488,0.0059
3.8547,-0.9577,-10.1921,0.0125,-0.1647,0.0016
3.6847,-0.9577,-10.2065,0.0045,-0.2859,-0.0115
3.6248,-0.9984,-10.307,0.0016,-0.3778,-0.0221
3.4381,-1.0487,-10.4291,-0.0005,-0.4447,-0.0245
3.3375,-1.075,-10.477,0.0003,-0.4799,-0.0253
3.0239,-1.1301,-10.6734,-0.0197,-0.4892,-0.0195
2.9616,-1.142,-10.726,-0.0187,-0.485,-0.0336
2.7773,-1.075,-10.6422,-0.0085,-0.4493,-0.025
2.6097,-1.1061,-10.5273,0.004,-0.4082,-0.0168
2.6839,-1.1971,-10.4052,0.0163,-0.3477,-0.0232
2.7653,-1.3216,-10.2879,0.0264,-0.2723,-0.025
2.7605,-1.391,-10.2975,0.0226,-0.2185,-0.0221
2.8491,-1.3958,-10.1897,0.0192,-0.1785,-0.0208
3.0478,-1.506,-10.058,0.0128,-0.1487,-0.0171
3.2441,-1.4748,-10.0485,0.0032,-0.1239,-0.0128
3.4285,-1.494,-9.991,-0.004,-0.1061,-0.0091
3.474,-1.5012,-10.1418,0.0008,-0.1002,0.0093
3.5314,-1.5131,-10.07,0.0048,-0.1274,0.0213
3.5458,-1.4557,-9.9742,-0.0048,-0.1841,0.0211
3.6152,-1.4389,-9.9766,-0.0221,-0.267,0.0181
3.699,-1.3886,-9.8282,-0.0477,-0.3701,0.0109
3.7206,-1.3575,-9.8928,-0.0557,-0.4938,0.0128
3.7086,-1.336,-9.9719,-0.0549,-0.6217,0.0155
3.6464,-1.312,-10.0245,-0.0496,-0.7317,0.0208
3.3806,-1.2594,-10.1562,-0.0517,-0.817,0.0237
3.2082,-1.2905,-10.0796,-0.0562,-0.8964,0.0261
3.0622,-1.2689,-10.2472,-0.0528,-0.9603,0.0229
3.0813,-1.2881,-10.228,-0.0514,-1.0219,0.0181
3.0598,-1.1899,-10.2568,-0.0498,-1.0752,0.016
2.9592,-1.2115,-10.331,-0.0378,-1.1191,0.0128
2.6456,-1.1827,-10.3166,-0.0181,-1.1413,0.0061
2.2577,-1.1325,-10.2544,0.0093,-1.1325,0.0203
1.9106,-1.075,-10.2927,0.0413,-1.0837,0.0269
1.5897,-1.0702,-10.228,0.064,-1.0038,0.0354
1.5538,-1.1732,-10.0892,0.0823,-0.9065,0.041
1.5586,-1.221,-9.9431,0.0917,-0.8023,0.0461
1.9465,-1.2905,-9.7851,0.1007,-0.6907,0.0469
2.1021,-1.3671,-9.6151,0.1002,-0.5793,0.0453
2.229,-1.4389,-9.5624,0.0946,-0.5356,0.0501
2.4756,-1.4868,-9.6031,0.0679,-0.5769,0.0634
2.7438,-1.5658,-9.4858,0.0373,-0.6675,0.0536
3.0287,-1.5586,-9.2608,-0.0117,-0.8111,0.0504
3.0837,-1.4988,-9.3015,-0.0576,-0.9963,0.0117
3.2992,-1.4437,-9.3422,-0.0749,-1.2457,-0.0104
3.1412,-1.4102,-9.4308,-0.1207,-1.4362,0.0221
2.7629,-1.4246,-9.6438,-0.1487,-1.6691,0.041
2.5235,-1.324,-9.8617,-0.1556,-1.8764,0.036
2.229,-1.2019,-10.0461,-0.1705,-2.0512,0.0456
1.9106,-1.2067,-10.2592,-0.1812,-2.1906,0.0557
1.5275,-1.1229,-10.3765,-0.1828,-2.2948,0.0597
1.1971,-1.0822,-10.4675,-0.1884,-2.3606,0.0677
0.917,-1.0894,-10.4363,-0.1641,-2.3545,0.0741
0.4717,-1.063,-10.4196,-0.125,-2.2807,0.0821
0.1676,-1.0654,-10.4459,-0.0714,-2.1818,0.0853
0.0575,-1.1372,-10.2137,-0.0325,-2.0685,0.097
0.1365,-1.1396,-10.1227,-0.0266,-1.9366,0.1111
0.4669,-1.233,-10.0413,-0.0528,-1.7962,0.1053
0.5818,-1.2665,-9.7707,-0.0797,-1.611,0.0946
0.5986,-1.2689,-9.845,-0.0866,-1.4834,0.0957
0.5914,-1.2689,-9.8426,-0.0903,-1.4253,0.1098
1.0582,-1.3312,-9.821,-0.0957,-1.4642,0.125
1.233,-1.3048,-9.9335,-0.1098,-1.5151,0.1207
1.2737,-1.3455,-9.979,-0.129,-1.6246,0.0986
1.1372,-1.3001,-10.0365,-0.1548,-1.7355,0.0919
0.8595,-1.2665,-9.9838,-0.162,-1.8487,0.0927
0.6895,-1.1396,-10.173,-0.1575,-1.9854,0.1079
0.5076,-1.0175,-10.0652,-0.1391,-2.0606,0.1167
0.1173,-0.9385,-10.2185,-0.1039,-2.0856,0.1218
-0.1197,-1.0726,-10.094,-0.0549,-2.1218,0.1316
-0.1293,-0.9601,-10.3573,-0.016,-2.1434,0.1412
-0.2179,-1.0391,-10.2496,-0.0442,-2.1682,0.1306
-0.1724,-1.1085,-10.07,-0.0775,-2.2079,0.125
-0.2801,-1.2474,-10.1993,-0.0951,-2.2268,0.0983
-0.6201,-1.3264,-10.477,-0.0933,-2.2412,0.0821
-0.8116,-1.2833,-10.6039,-0.0893,-2.237,0.0895
-0.8643,-1.2761,-9.9982,-0.1146,-2.2247,0.1047
-0.6129,-1.2905,-9.6223,-0.1338,-2.2023,0.1005
-0.747,-1.3192,-10.1658,-0.1396,-2.1703,0.0903
-0.8811,-1.2115,-10.4028,-0.1631,-2.145,0.0858
-1.2953,-1.3048,-10.0844,-0.1897,-2.1117,0.0829
-1.4102,-1.2929,-9.6726,-0.1825,-2.1554,0.0701
-1.2809,-1.1827,-9.5624,-0.1791,-2.1845,0.0762
-1.0918,-1.1516,-9.4379,-0.1852,-2.1445,0.0781
-1.2546,-1.2067,-9.1339,-0.1769,-2.0638,0.0751
-1.6951,-1.0918,-8.7676,-0.1668,-1.9774,0.0775
-2.15,-1.1468,-8.5832,-0.1788,-1.9612,0.0727
-2.6456,-1.0367,-8.4252,-0.2212,-1.9353,0.0434
-3.0406,-0.9242,-8.5952,-0.3107,-1.8927,0.0461
-3.3327,-0.6967,-8.655,-0.3992,-1.8676,0.0861
-2.9473,-0.5842,-8.904,-0.4754,-1.9055,0.1108
-2.5019,-0.51,-9.4164,-0.4658,-1.9502,0.1266
-2.3583,-0.4118,-9.8809,-0.4037,-1.9894,0.0917
-2.2362,-0.4788,-10.0796,-0.3288,-2.0893,0.0112
-2.478,-0.668,-10.0197,-0.2521,-2.1581,-0.0408
-2.9113,-0.8188,-9.7564,-0.1271,-2.2388,-0.0714
-2.9568,-0.8906,-9.8785,0.0005,-2.2175,-0.0586
-3.3303,-0.9553,-10.058,0.0698,-2.1165,-0.0432
-3.7182,-1.1277,-10.3765,0.1061,-2.048,-0.0509
-3.7397,-1.0894,-10.5872,0.113,-2.0747,-0.0306
-2.9664,-0.929,-10.5225,0.0738,-2.0851,0.0091
-2.6193,-0.9433,-10.4124,0.0019,-2.0616,-0.0301
-2.7007,-1.0463,-10.3645,-0.0853,-2.1029,-0.0642
-3.0335,-0.9242,-10.3022,-0.134,-2.2036,-0.1282
-3.1987,-0.9313,-10.1323,-0.1687,-2.3334,-0.1753
-3.3854,-1.0582,-10.0748,-0.1548,-2.4555,-0.1943
-3.7828,-0.8811,-10.0078,-0.0757,-2.5652,-0.178
-4.3215,-0.7542,-9.9671,-0.0051,-2.6537,-0.1628
-4.7022,-0.7781,-9.8737,0.0522,-2.7451,-0.1591
-4.6855,-0.8332,-9.7779,0.1111,-2.744,-0.1639
-4.9368,-0.9433,-9.5912,0.1631,-2.6763,-0.1849
-5.0254,-1.0918,-9.4619,0.1703,-2.5751,-0.1775
-5.2505,-1.1492,-9.3853,0.1511,-2.4698,-0.1775
-5.2218,-1.1708,-9.3685,0.113,-2.4022,-0.194
-5.0302,-1.1612,-9.4044,0.0594,-2.2926,-0.1663
-5.3558,-1.0846,-9.2751,0.0352,-2.1847,-0.19
-5.1427,-1.2043,-9.3829,0.025,-2.1394,-0.1849
-5.0901,-1.1444,-9.6007,0.0224,-2.0803,-0.1577
-4.7956,-1.0367,-9.5265,0.0253,-2.0571,-0.1783
-4.6663,-1.0582,-9.2105,-0.0003,-2.0227,-0.1974
-5.0829,-1.142,-8.6862,0.0117,-2.015,-0.2081
-5.2984,-1.0582,-8.2313,0.0368,-2.1061,-0.2449
-5.3439,-1.0104,-8.2696,0.0261,-2.198,-0.2366
-5.4468,-1.0247,-8.5784,0.0282,-2.2647,-0.1833
-5.5522,-0.9744,-8.7819,0.033,-2.299,-0.1809
-5.6886,-1.0606,-8.5569,0.0408,-2.3081,-0.1897
-5.6671,-1.008,-8.2384,0.0477,-2.3033,-0.2102
-5.8945,-1.0894,-7.944,0.0474,-2.27,-0.207
-6.2106,-1.0989,-7.9344,0.0682,-2.2412,-0.2025
-6.2465,-1.0918,-7.9464,0.0679,-2.2266,-0.1764
-6.3159,-1.0319,-7.8027,0.0648,-2.112,-0.1759
-6.5003,-1.0175,-7.7405,0.0637,-2.0736,-0.223
-6.2608,-0.9313,-7.5561,0.0416,-2.0456,-0.2246
-6.3614,-1.0822,-7.4675,0.0043,-2.0382,-0.2614
-6.3063,-1.1229,-7.3717,-0.0077,-2.0965,-0.2675
-6.0717,-1.0965,-7.3215,-0.0208,-2.136,-0.2801
-5.9807,-1.142,-7.422,-0.0229,-2.1943,-0.2995
-5.8419,-1.2641,-7.331,-0.0264,-2.3214,-0.3248
-5.2481,-1.2857,-7.422,-0.0043,-2.4453,-0.3051
-5.4612,-1.1923,-7.4962,0.0581,-2.5748,-0.3371
-5.7628,-1.0678,-7.4795,0.0906,-2.7547,-0.3427
-6.1052,-1.075,-7.0126,0.1204,-2.9159,-0.4048
-6.4931,-0.9673,-6.7588,0.1322,-3.0542,-0.4197
-6.7301,-1.0774,-6.608,0.1247,-3.201,-0.385
-6.6415,-1.2282,-6.5457,0.1476,-3.2471,-0.3272
-7.0126,-1.221,-6.5888,0.1849,-3.2402,-0.3517
-6.9599,-1.2546,-6.5984,0.1913,-3.3366,-0.3917
-6.3087,-1.5203,-6.4117,0.1532,-3.4483,-0.393
-6.3805,-1.6903,-6.2273,0.1431,-3.5045,-0.4183
-6.5769,-1.6328,-5.873,0.1564,-3.6228,-0.4405
-6.62,-1.585,-5.7365,0.1343,-3.7779,-0.4117
-7.3119,-1.4341,-5.7652,0.1069,-3.8725,-0.3688
-7.3358,-1.3431,-5.5019,0.0514,-3.9943,-0.3629
-7.8338,-1.2929,-5.2385,0.0224,-3.9602,-0.3912
-8.0732,-1.2665,-5.1547,0.0333,-3.8714,-0.3576
-8.3007,-1.3024,-5.138,0.0885,-3.751,-0.3192
-8.4851,-1.4126,-5.0398,0.1641,-3.5706,-0.243
-8.5784,-1.4246,-4.7788,0.231,-3.383,-0.1833
-9.086,-1.4461,-4.5083,0.2651,-3.1427,-0.1788
-9.5002,-1.4868,-4.4101,0.2763,-2.9393,-0.1716
-8.7843,-1.8004,-3.9863,0.323,-2.671,-0.1487
-8.7819,-1.8651,-3.8666,0.3405,-2.3334,-0.1535
-8.6239,-1.8316,-3.6703,0.3115,-2.1064,-0.1428
-8.5808,-1.6544,-3.5913,0.2539,-1.942,-0.1447
-8.2145,-1.5299,-3.5171,0.1673,-1.8429,-0.1191
-8.3797,-1.4126,-3.6847,0.13,-1.792,-0.1375
-8.2552,-1.2737,-3.7278,0.0975,-1.7368,-0.0911
-7.9104,-1.3216,-3.5386,0.0981,-1.6731,-0.0842
-8.0062,-1.312,-3.1436,0.138,-1.5671,-0.0983
-8.3031,-1.2737,-2.6384,0.203,-1.4967,-0.0506
-8.6981,-1.1564,-2.4636,0.2411,-1.4264,-0.0773
-9.0046,-1.2378,-2.5762,0.2321,-1.2569,-0.0168
-9.4116,-1.2785,-2.8419,0.2244,-1.0379,-0.0248
-9.1866,-1.3623,-2.8156,0.23,-0.736,-0.0021
-9.4834,-1.4413,-2.727,0.2276,-0.376,0.0317
-9.4834,-1.4581,-2.8395,0.2353,-0.0853,0.0397
-9.2632,-1.5275,-3.1053,0.2481,0.2169,0.0509
-9.268,-1.482,-3.1627,0.2526,0.498,0.0501
-8.8538,-1.6113,-2.8276,0.251,0.671,0.0725
-8.2145,-1.6951,-2.4038,0.2542,0.797,0.1023
-7.6543,-1.7549,-2.2338,0.2321,0.7994,0.1191
-7.4316,-1.7262,-2.3942,0.1617,0.6992,0.1346
-7.0366,-1.6161,-2.411,0.0541,0.5393,0.1359
-7.0174,-1.4988,-2.5905,-0.0578,0.3853,0.1143
-7.4244,-1.403,-2.6025,-0.1196,0.2204,0.1111
-7.8458,-1.2354,-2.7031,-0.1226,0.0642,0.125
-8.2169,-1.1971,-3.1556,-0.0951,0.0,0.1332
-8.6694,-1.221,-3.474,-0.0536,0.0298,0.1404
-9.1387,-1.3024,-3.3806,-0.0232,0.1455,0.1247
-9.4906,-1.3743,-3.201,-0.0008,0.2987,0.1053
-9.5624,-1.494,-3.3016,0.0274,0.469,0.1154
-9.3925,-1.6041,-3.2753,0.0493,0.6667,0.1228
-9.1794,-1.7047,-3.1987,0.0701,0.8391,0.1095
-8.7819,-1.6688,-3.0861,0.0717,0.927,0.1082
-8.2815,-1.7358,-3.1029,0.0608,0.9667,0.1053
-7.8745,-1.7597,-3.2154,0.0386,0.9188,0.0989
-7.6614,-1.6975,-3.5051,0.0053,0.785,0.1042
-7.4077,-1.6041,-3.6631,-0.036,0.5953,0.1047
-7.5082,-1.4796,-3.7517,-0.0677,0.393,0.0919
-7.7237,-1.3743,-3.8595,-0.0869,0.1924,0.0882
-8.1403,-1.3455,-3.8595,-0.0874,0.0402,0.0826
-8.6119,-1.2665,-3.7637,-0.0714,-0.0258,0.0727
-9.1459,-1.3048,-3.7804,-0.0504,-0.0093,0.065
-9.5984,-1.403,-3.8666,-0.0253,0.0701,0.0703
-9.7875,-1.5347,-3.8858,-0.0061,0.1913,0.0679
-9.6654,-1.6544,-3.8906,0.0221,0.3525,0.0624
-9.7037,-1.652,-3.8451,0.0437,0.5193,0.061
-9.5457,-1.6664,-3.6176,0.0504,0.6606,0.0565
-9.5409,-1.6233,-3.2753,0.0442,0.8274,0.0405
-9.6175,-1.561,-3.0263,0.028,0.9718,0.028
-9.335,-1.6352,-2.9904,0.0136,1.0794,0.0264
-8.8514,-1.5658,-2.976,0.0013,1.1548,0.0147
-8.5162,-1.4485,-2.8395,-0.0136,1.1655,-0.0035
-8.3677,-1.3743,-2.794,-0.0386,1.1,-0.025
-8.2744,-1.4054,-2.9616,-0.0634,1.0126,-0.0472
-8.4635,-1.4078,-3.1915,-0.0677,0.9662,-0.0626
-8.746,-1.4509,-3.5793,-0.0354,0.9579,-0.0741
-9.0644,-1.4581,-4.2066,0.0043,1.0038,-0.0709
-9.2608,-1.4796,-4.7597,0.0632,1.108,-0.0695
-9.4332,-1.5251,-5.3774,0.1239,1.2828,-0.0573
-9.3541,-1.5634,-5.6934,0.1905,1.4645,-0.0634
-9.0956,-1.6927,-5.7892,0.2473,1.6454,-0.0746
-9.0046,-1.7573,-5.6838,0.3022,1.8178,-0.0802
-9.0573,-1.6975,-5.5833,0.3344,1.9689,-0.0695
-9.1842,-1.7166,-5.7078,0.3331,2.04,-0.0642
-8.4108,-1.9465,-5.6671,0.3147,2.0502,-0.0576
-7.9368,-1.8962,-5.6455,0.3019,2.1448,-0.028
-7.8075,-1.8435,-5.5689,0.2651,2.1101,-0.0568
-7.6614,-1.8124,-5.4588,0.2142,2.0248,-0.0722
-7.695,-1.7502,-5.2289,0.1623,1.9657,-0.0669
-7.8338,-1.5682,-5.1236,0.1231,1.9215,-0.0605
-7.9296,-1.5179,-5.2505,0.1047,1.9284,-0.0461
-8.0709,-1.5203,-5.3534,0.1164,1.9886,-0.0453
-8.1499,-1.4676,-5.3223,0.1498,2.1056,-0.0381
-8.3007,-1.4557,-5.351,0.1924,2.2471,-0.0344
-8.4707,-1.4365,-5.5713,0.2206,2.4357,-0.0021
-8.6048,-1.3862,-5.8945,0.2411,2.6382,0.0104
-8.6167,-1.4629,-5.9783,0.2526,2.8642,0.024
-8.351,-1.494,-6.0956,0.2758,3.1205,0.0104
-8.3797,-1.6305,-6.1723,0.2923,3.4312,0.028
-8.5545,-1.6831,-6.2249,0.3285,3.7076,0.0349
-8.3989,-1.6807,-6.1699,0.3171,3.8856,0.0378
-7.6184,-1.9369,-6.1148,0.2955,4.0308,0.0
-6.9935,-2.0039,-6.2106,0.2875,4.2058,-0.0123
-6.6702,-2.0255,-6.1938,0.2561,4.325,-0.0112
-6.5314,-2.0016,-6.0238,0.2078,4.3764,-0.0317
-6.2177,-1.9537,-6.0621,0.1516,4.3822,-0.0581
-5.7916,-1.8507,-6.1699,0.1063,4.4222,-0.0648
-5.466,-1.8531,-6.3231,0.0799,4.5466,-0.0786
-5.4923,-1.5778,-6.1387,0.0893,4.65,-0.0767
-5.9137,-1.6233,-6.3973,0.0352,4.7366,-0.0655
-5.5952,-1.743,-6.3997,0.0648,4.8462,-0.0847
-5.217,-1.494,-7.0725,0.061,5.0777,-0.0522
-5.4516,-1.8747,-7.355,0.0296,5.3037,-0.0767
-4.9752,-1.8842,-7.3789,0.0773,5.5083,-0.0898
-4.5729,-1.719,-7.8266,0.1079,5.7172,-0.065
-4.0606,-1.6424,-8.2552,0.0765,5.9019,-0.0853
-3.8475,-1.8148,-8.5473,0.033,6.0556,-0.1135
-3.6081,-1.7885,-8.8705,0.0131,6.1417,-0.1154
-3.1651,-1.7142,-8.8849,-0.0035,6.203,-0.1359
-2.7677,-1.7957,-8.7053,-0.0101,6.2406,-0.149
-2.411,-1.8459,-8.7125,0.0104,6.2174,-0.1271
-2.0925,-1.7789,-8.8777,0.0061,6.1284,-0.0831
-1.8124,-1.6712,-8.9687,-0.0112,5.9959,-0.0783
-1.8124,-1.3719,-8.9016,-0.061,5.7662,-0.122
-1.3647,-1.7526,-8.9112,-0.1135,5.5672,-0.1876
-1.4246,-1.5969,-9.2273,-0.0679,5.3663,-0.1087
-1.1827,-1.2139,-9.5648,-0.0709,5.1278,-0.0613
-0.9673,-1.1708,-9.8306,-0.1266,4.9096,-0.0669
-0.7446,-1.1564,-10.0485,-0.1495,4.7039,-0.13
-0.7111,-1.403,-10.1897,-0.1311,4.4728,-0.162
-0.431,-1.3982,-10.3956,-0.0525,4.2823,-0.1306
-0.5578,-1.2402,-10.8362,-0.0013,4.2021,-0.1058
-0.3807,-1.6927,-11.1833,-0.0778,4.0561,-0.0536
-0.4669,-2.0375,-10.9439,-0.0887,3.9756,-0.0482
-0.1532,-1.585,-11.3437,-0.0488,3.8453,-0.1069
0.4693,-1.3815,-11.5688,-0.0669,3.718,-0.202
0.9026,-2.0734,-10.8936,-0.0853,3.5538,-0.2118
1.3072,-2.3822,-10.2759,0.0043,3.3145,-0.1641
1.7406,-2.5833,-9.7683,0.0394,2.9505,-0.1689
1.9321,-2.6791,-9.7252,0.0013,2.5117,-0.2132
1.1851,-2.4756,-9.5744,-0.0714,2.0851,-0.2332
0.7997,-2.071,-9.4403,-0.1196,1.7195,-0.2092
0.2203,-1.9824,-9.3158,-0.1223,1.6555,-0.1311
-0.5507,-1.5897,-9.6965,-0.0418,1.7581,-0.1335
-1.2067,-1.5754,-9.2249,-0.0075,1.9537,-0.1492
-0.8571,-1.7597,-8.6191,-0.0221,2.1541,-0.1556
-0.2466,-2.0518,-8.4324,-0.1013,2.4371,-0.1468
0.3256,-2.2721,-8.4539,-0.1655,2.6835,-0.1577
0.7302,-2.1907,-8.3486,-0.2094,2.8613,-0.2121
1.2905,-2.0135,-8.7245,-0.2798,2.9252,-0.2078
1.9944,-1.9106,-8.7963,-0.3267,2.9988,-0.1561
2.5786,-1.8435,-8.9495,-0.3269,3.0489,-0.1444
2.9904,-1.7526,-8.6742,-0.3131,3.0313,-0.1258
3.6847,-1.7909,-8.6766,-0.2979,2.9737,-0.1263
4.063,-1.7549,-8.8825,-0.3307,2.8256,-0.0946
4.8004,-1.7621,-8.8155,-0.3717,2.5618,-0.1159
5.6838,-1.6735,-8.734,-0.3752,2.31,-0.145
5.9328,-1.5754,-8.6143,-0.3784,2.0264,-0.1522
5.5929,-1.336,-8.6814,-0.3619,1.6465,-0.1013
5.375,-1.1803,-8.9495,-0.3592,1.2476,-0.0477
4.9895,-1.1372,-9.1123,-0.3523,0.9478,-0.0208
4.6017,-0.9194,-9.2368,-0.3421,0.6997,-0.0107
4.4652,-0.7638,-9.5026,-0.3432,0.514,0.0096
4.1228,-0.7566,-9.7588,-0.3214,0.4048,0.0218
3.9816,-0.7614,-10.0796,-0.2801,0.3384,0.0658
3.7421,-0.7925,-9.991,-0.2513,0.3328,0.0941
3.6703,-0.8068,-10.2328,-0.2161,0.3453,0.1007
3.6057,-0.8571,-10.2831,-0.1935,0.3531,0.0887
3.7206,-0.8571,-10.2568,-0.1823,0.3376,0.0898
3.8858,-0.8308,-10.2783,-0.1591,0.3094,0.0512
4.1683,-0.8045,-10.1227,-0.1218,0.2856,0.0336
4.5179,-0.8188,-10.0772,-0.0743,0.2249,0.0205
4.4341,-0.8715,-9.9072,-0.0477,0.1522,0.0224
4.6064,-0.9984,-9.7827,-0.0296,0.0336,0.0147
4.5729,-1.0989,-9.7947,-0.0242,-0.1026,-0.0048
4.719,-1.1205,-9.6869,-0.053,-0.2886,-0.0021
4.6807,-1.1444,-9.7492,-0.093,-0.4932,-0.0029
4.5921,-1.0798,-9.8019,-0.1148,-0.6744,-0.0045
4.4269,-1.0343,-9.7995,-0.1234,-0.8159,-0.012
4.0654,-1.0965,-9.9096,-0.1226,-0.9086,-0.0075
3.6081,-1.063,-9.924,-0.1138,-0.9627,0.0008
3.1436,-1.0175,-10.1011,-0.1013,-0.9625,0.0032
2.8946,-0.9888,-10.137,-0.0906,-0.8897,-0.0069
2.636,-1.008,-10.2352,-0.0767,-0.7682,-0.0149
2.4588,-1.0391,-10.3022,-0.0687,-0.6289,-0.0173
2.4493,-1.0463,-10.2807,-0.0618,-0.4786,-0.0184
2.4708,-1.0223,-10.2855,-0.0546,-0.3269,-0.0189
2.5714,-1.0271,-10.2879,-0.0424,-0.1876,-0.0211
2.7725,-1.1085,-10.4004,-0.029,-0.0562,-0.0338
2.9544,-1.1253,-10.4052,-0.0192,0.0234,-0.0392
3.1867,-1.1827,-10.4076,-0.0117,0.0815,-0.0312
3.4453,-1.221,-10.3956,-0.0061,0.0997,-0.0195
3.6512,-1.1923,-10.4651,-0.0088,0.0743,-0.0155
3.8379,-1.2139,-10.4698,-0.0197,0.0029,-0.0173
3.9768,-1.2617,-10.568,-0.0336,-0.1071,-0.0077
4.0749,-1.2498,-10.6446,-0.041,-0.2324,-0.0045
3.8906,-1.1947,-10.6734,-0.036,-0.3589,-0.0125
3.7685,-1.166,-10.6566,-0.029,-0.4906,-0.0048
3.5291,-1.1396,-10.6231,-0.0184,-0.6027,0.0067
3.4309,-1.2019,-10.4794,-0.0131,-0.6939,0.0053
3.292,-1.2258,-10.3837,-0.0165,-0.7581,0.0045
3.1747,-1.2234,-10.4267,-0.0245,-0.8087,0.0141
3.0478,-1.1827,-10.3238,-0.032,-0.8567,0.0216
2.9353,-1.1253,-10.1035,-0.0458,-0.8937,0.0285
2.9305,-1.0774,-10.1418,-0.048,-0.9153,0.0216
2.8515,-1.0774,-9.9742,-0.0461,-0.9398,0.0195
2.873,-1.1468,-9.9575,-0.0328,-0.959,0.0306
2.8323,-1.1468,-9.9168,-0.0203,-0.9707,0.0378
2.7629,-1.166,-9.8426,-0.0181,-0.9785,0.0362
2.6887,-1.1325,-9.8881,-0.0211,-0.9832,0.04
2.6432,-1.1803,-9.9096,-0.0285,-1.0035,0.0504
2.6815,-1.1349,-9.9216,-0.0408,-1.0283,0.056
2.5259,-1.0918,-9.9934,-0.0512,-1.0696,0.0522
2.6767,-1.0463,-10.0102,-0.0749,-1.177,0.0637
2.7677,-1.0965,-10.1873,-0.0887,-1.2662,0.0634
2.6312,-1.0606,-10.1706,-0.0914,-1.3558,0.049
2.32,-1.0223,-10.2544,-0.0922,-1.4714,0.0424
2.2003,-1.0343,-10.2568,-0.0877,-1.5977,0.0405
2.1165,-0.9361,-10.2807,-0.0893,-1.6862,0.0368
1.9992,-0.9768,-10.2831,-0.1095,-1.7549,0.0083
1.7047,-1.0415,-10.4267,-0.1122,-1.8106,0.028
1.5443,-0.9649,-10.4244,-0.101,-1.8479,0.0541
1.4485,-0.9481,-10.3214,-0.1077,-1.9396,0.0472
1.7933,-1.0127,-10.2783,-0.117,-1.9915,0.0402
2.0853,-1.0295,-10.0604,-0.1071,-1.8868,0.0285
1.5634,-0.9577,-10.319,-0.0711,-1.8074,0.0314
1.3599,-0.9744,-9.9551,-0.045,-1.8055,0.0557
1.5874,-1.063,-10.0652,-0.0496,-1.8775,0.0754
1.7526,-1.1588,-9.9288,-0.0621,-1.978,0.0693
1.8555,-1.142,-9.8186,-0.0887,-2.1208,0.0453
1.6903,-1.0822,-9.8186,-0.1234,-2.3017,0.0261
1.5371,-0.9744,-9.8785,-0.1415,-2.4784,0.0288
1.0534,-0.984,-9.9958,-0.1378,-2.6047,0.0552
0.5507,-0.8499,-10.0341,-0.1015,-2.7232,0.0648
0.3591,-0.8475,-9.9742,-0.0754,-2.8381,0.0733
0.3328,-0.9553,-10.1945,-0.0687,-2.8805,0.0775
0.1437,-0.929,-10.307,-0.0695,-2.9178,0.085
0.0215,-0.9074,-10.1466,-0.1047,-2.9404,0.0901
-0.091,-0.8236,-10.2352,-0.1354,-2.9276,0.0874
-0.4597,-0.8356,-10.4028,-0.134,-2.8687,0.0805
-0.8236,-0.8332,-10.2424,-0.109,-2.8304,0.0781
-0.8092,-0.8954,-9.9838,-0.0706,-2.8205,0.0855
-0.4645,-0.9601,-10.003,-0.052,-2.8386,0.1042
-0.3376,-1.1708,-10.149,-0.0424,-2.8016,0.1162
-0.3543,-1.1468,-10.3741,-0.0139,-2.7736,0.105
-0.589,-1.1492,-9.8497,-0.0466,-2.7936,0.0957
-0.7518,-1.2594,-9.4308,-0.0629,-2.7909,0.1066
-0.8643,-1.1708,-9.6079,-0.0669,-2.8312,0.1228
-0.9529,-1.1037,-9.4954,-0.1034,-2.8293,0.1164
-1.3192,-1.0391,-9.2129,-0.133,-2.8019,0.1095
-1.7549,-0.9577,-9.0214,-0.1476,-2.7701,0.1069
-2.2649,-0.893,-8.8346,-0.1652,-2.7169,0.1204
-2.6384,-0.7254,-8.9471,-0.1593,-2.6841,0.1196
-2.6025,-0.7709,-9.1866,-0.1284,-2.6023,0.1082
-2.5833,-0.826,-9.4763,-0.0845,-2.4046,0.1239
-2.8778,-0.8404,-9.4475,-0.0549,-2.1914,0.1284
-3.2585,-0.917,-9.3494,-0.0584,-2.0262,0.1005
-3.2154,-0.9912,-9.3039,-0.0581,-1.8932,0.0839
-3.1891,-1.0894,-9.56,-0.0256,-1.7203,0.1047
-3.2394,-0.9457,-9.9096,-0.0171,-1.5713,0.1252
-3.0718,-1.0127,-10.0628,-0.0679,-1.4365,0.1156
-2.9975,-1.0678,-10.0341,-0.0965,-1.3566,0.0879
-2.6863,-1.0319,-10.0844,-0.1271,-1.3147,0.089
-2.5905,-1.0487,-10.0078,-0.1434,-1.2913,0.073
-2.5091,-1.0558,-9.6869,-0.15,-1.3059,0.0493
-2.3008,-1.0989,-9.3733,-0.1412,-1.3145,0.0304
-2.4397,-1.1588,-9.2081,-0.097,-1.3019,0.0226
-3.0119,-0.9074,-9.1435,-0.0666,-1.3041,0.0328
-3.5889,-0.6081,-9.4068,-0.0978,-1.3563,0.0789
-3.6416,-0.4334,-9.4691,-0.1474,-1.4541,0.1585
-3.1556,-0.1389,-9.5002,-0.1945,-1.5383,0.194
-2.9664,-0.0168,-9.7133,-0.2348,-1.6435,0.1362
-3.2513,-0.2586,-9.5768,-0.234,-1.8266,0.0397
-3.6152,-0.4597,-9.3446,-0.1612,-1.9889,-0.0346
-3.6847,-0.4836,-9.0812,-0.0549,-2.1037,-0.0741
-3.9409,-0.5363,-9.0621,0.0176,-2.0739,-0.0655
-4.6711,-0.6273,-9.007,0.053,-1.9961,-0.0578
-5.0278,-0.7949,-8.995,0.0799,-1.9553,-0.0919
-4.81,-0.8308,-9.1028,0.0807,-1.8578,-0.0855
-5.047,-0.9409,-9.3637,0.0514,-1.7501,-0.0991
-5.0446,-0.996,-9.7085,0.0005,-1.63,-0.0717
-4.9775,-1.0343,-9.8186,-0.0248,-1.5473,-0.0746
-4.5107,-0.984,-9.7971,-0.0256,-1.5028,-0.1172
-4.3072,-0.8595,-9.7037,-0.0501,-1.4663,-0.1244
-4.2329,-0.9601,-9.754,-0.0685,-1.5593,-0.1588
-3.8547,-0.9744,-10.0437,-0.064,-1.7046,-0.1801
-3.5698,-0.9433,-10.137,-0.0703,-1.8295,-0.1887
-3.6392,-0.9625,-9.8043,-0.0378,-1.9777,-0.1577
-4.1348,-0.7207,-9.3853,0.0003,-2.1733,-0.1402
-4.458,-0.565,-9.1842,0.0125,-2.4,-0.1601
-4.5586,-0.5914,-9.0046,0.0221,-2.529,-0.1631
-4.944,-0.7446,-8.9208,0.0655,-2.59,-0.1713
-5.1427,-0.7638,-8.9064,0.0975,-2.6838,-0.1871
-5.0182,-0.7781,-8.7795,0.0994,-2.7395,-0.2012
-4.8937,-0.9218,-8.5401,0.0871,-2.7438,-0.1849
-5.5833,-0.996,-8.5665,0.0789,-2.7693,-0.1679
-5.7389,-0.9649,-8.6646,0.06,-2.8738,-0.2017
-5.703,-0.9098,-8.8705,0.0317,-2.9034,-0.1985
-5.8562,-0.7901,-8.9184,-0.0024,-2.8666,-0.2161
-6.0094,-0.8787,-8.7652,-0.0125,-2.7648,-0.2126
-6.7469,-0.7757,-8.3941,0.0208,-2.7518,-0.247
-6.7229,-0.6991,-7.9823,0.0632,-2.7979,-0.2856
-6.5481,-0.7805,-8.0206,0.1098,-2.7685,-0.259
-6.6918,-0.8643,-8.2049,0.1815,-2.6609,-0.2217
-6.3327,-0.8619,-7.8961,0.2294,-2.5026,-0.2174
-6.4835,-1.1085,-7.3837,0.2622,-2.3547,-0.2385
-6.699,-1.2163,-7.1611,0.2907,-2.3657,-0.2204
-6.5625,-1.3048,-7.1778,0.2745,-2.4072,-0.2089
-6.6319,-1.4126,-7.1395,0.2206,-2.465,-0.1974
-6.2848,-1.3575,-7.1156,0.1508,-2.4944,-0.226
-6.4045,-1.2977,-7.003,0.0789,-2.4344,-0.2332
-6.8402,-1.2067,-6.8139,0.0552,-2.4469,-0.2681
-7.0677,-1.0606,-6.6679,0.0368,-2.5218,-0.2912
-6.9743,-1.008,-6.7421,0.0376,-2.5389,-0.267
-6.8618,-1.0702,-6.8091,0.0634,-2.5018,-0.2353
-7.197,-0.9337,-6.7373,0.1258,-2.4088,-0.2441
-7.525,-0.9529,-6.3734,0.1703,-2.363,-0.2273
-7.7596,-1.0511,-6.189,0.2172,-2.3156,-0.2145
-7.5537,-1.1396,-6.3375,0.2569,-2.2684,-0.2044
-7.2832,-1.245,-6.4356,0.2896,-2.1959,-0.1937
-7.0366,-1.3408,-6.0573,0.3064,-2.1144,-0.2156
-7.343,-1.4054,-5.4923,0.3112,-2.1213,-0.2633
-7.422,-1.4054,-5.3367,0.263,-2.3062,-0.3619
-6.8546,-1.64,-5.6647,0.1322,-2.4576,-0.3107
-6.5912,-1.6855,-6.0861,0.057,-2.5122,-0.2177
-7.0797,-1.2905,-5.9664,0.0029,-2.5277,-0.2062
-7.4029,-1.0295,-5.5881,-0.0773,-2.6041,-0.2627
-7.7261,-0.9768,-5.351,-0.1042,-2.6851,-0.2817
-7.9344,-0.917,-5.454,-0.0589,-2.6894,-0.2358
-8.2791,-0.9601,-5.3367,0.0426,-2.5746,-0.1711
-8.7053,-0.9098,-4.8147,0.1876,-2.3598,-0.1809
-8.4946,-1.1396,-4.6064,0.2673,-2.2026,-0.19
-8.8035,-1.4485,-4.968,0.3158,-1.9015,-0.0538
-8.6191,-1.5323,-5.0973,0.3222,-1.7317,-0.065
-8.4898,-1.5754,-4.9584,0.2963,-1.5418,-0.1098
-8.1906,-1.4174,-4.4819,0.2681,-1.4226,-0.1506
-8.1044,-1.2186,-4.3958,0.2198,-1.2905,-0.1466
-8.0278,-1.2282,-4.5418,0.162,-1.2414,-0.1226
-7.8841,-1.0942,-4.3981,0.1143,-1.2367,-0.1809
-7.331,-1.233,-3.9816,0.0344,-1.279,-0.13
-7.5681,-1.2617,-3.8379,0.0248,-1.307,-0.0693
-7.8793,-1.0439,-3.9313,0.0482,-1.3781,-0.032
-7.8266,-0.9888,-4.0917,0.0498,-1.4453,-0.0533
-8.0589,-1.1277,-4.0725,0.097,-1.4,-0.0264
-8.248,-1.1253,-3.7062,0.154,-1.3707,-0.0083
-8.6215,-1.1899,-3.4189,0.1966,-1.3416,-0.0341
-8.6503,-1.3264,-3.3686,0.2081,-1.2993,-0.0424
-8.3989,-1.4126,-3.4716,0.199,-1.2151,-0.0019
-8.6,-1.3551,-3.4836,0.1647,-1.0722,-0.0021
-8.5736,-1.2881,-3.2801,0.1292,-0.9923,-0.0517
-8.6335,-1.1708,-3.1173,0.0858,-0.8982,-0.053
-8.9112,-1.1109,-3.201,0.0549,-0.813,-0.0602
-8.6479,-1.1971,-3.5075,0.0671,-0.736,-0.032
-8.3749,-1.2881,-3.541,0.1023,-0.6326,-0.0069
-8.248,-1.4102,-3.5243,0.1596,-0.5486,-0.0144
-8.1427,-1.3934,-3.5578,0.1935,-0.5516,-0.0173
-8.0397,-1.3192,-3.4429,0.1727,-0.5891,-0.0099
-8.181,-1.4413,-3.1292,0.1447,-0.6065,-0.0035
-8.1762,-1.5275,-2.8252,0.1308,-0.6323,0.0027
-8.1954,-1.5036,-2.636,0.1234,-0.6414,0.016
-8.1307,-1.5323,-2.6504,0.101,-0.6366,0.0264
-8.3007,-1.5107,-2.715,0.0648,-0.6294,0.0341
-8.4611,-1.4461,-2.6049,0.0357,-0.6336,0.0253
-8.734,-1.3647,-2.6647,0.0195,-0.6185,0.0184
-8.9735,-1.3431,-2.8395,0.0229,-0.5724,0.0203
-8.8562,-1.3647,-3.0742,0.0496,-0.4628,0.032
-8.8322,-1.415,-3.0478,0.081,-0.3301,0.0453
-8.9184,-1.5227,-3.0263,0.1047,-0.2523,0.0418
-8.7843,-1.5179,-3.1125,0.1045,-0.1895,0.024
-8.8945,-1.4724,-3.2872,0.0914,-0.1271,0.0171
-8.9352,-1.4485,-3.5219,0.0877,-0.06,0.0221
-8.995,-1.3838,-3.5769,0.0903,0.0304,0.0245
-9.0764,-1.3575,-3.7493,0.0967,0.1135,0.0274
-8.6119,-1.4126,-3.6943,0.1116,0.1548,0.0357
-8.3989,-1.415,-3.2705,0.125,0.1911,0.0352
-8.5353,-1.4341,-3.0742,0.1268,0.1263,0.0333
-8.5545,-1.5179,-3.1795,0.1047,0.0512,0.0362
-8.497,-1.4772,-2.9832,0.0815,0.0125,0.0333
-8.6407,-1.5347,-2.6504,0.0648,0.0016,0.0253
-8.746,-1.5036,-2.5019,0.0549,-0.0274,0.0221
-8.8442,-1.5083,-2.5857,0.0378,-0.037,0.0149
-8.9591,-1.4485,-2.7797,0.0293,-0.0229,-0.0035
-9.0333,-1.3719,-2.9353,0.0171,0.0051,-0.0192
-9.1937,-1.3527,-2.9999,0.0165,0.029,-0.0277
-9.3134,-1.2785,-3.0981,0.0248,0.0773,-0.0418
-9.2847,-1.3072,-2.9305,0.0384,0.1498,-0.0525
-9.3613,-1.3886,-2.9975,0.0637,0.2233,-0.0578
-9.3158,-1.415,-3.2848,0.0751,0.2753,-0.0586
-9.0357,-1.482,-3.6057,0.0741,0.3184,-0.0576
-8.6886,-1.5467,-3.9361,0.0722,0.3512,-0.0552
-8.5066,-1.5586,-4.0654,0.0658,0.3579,-0.0541
-8.5258,-1.4988,-3.7637,0.0474,0.3456,-0.052
-8.7891,-1.4293,-3.5458,0.0173,0.3413,-0.0474
-9.1099,-1.5227,-3.3639,-0.0104,0.3789,-0.0376
-9.3374,-1.5036,-3.2944,-0.004,0.469,-0.0298
-9.3972,-1.4054,-3.2489,0.0024,0.6009,-0.0181
-9.4523,-1.4341,-3.158,-0.0019,0.741,-0.0085
-9.4691,-1.4269,-3.0406,0.0099,0.8847,-0.0072
-9.4212,-1.5155,-2.8132,0.033,1.0432,-0.0051
-9.4882,-1.5419,-2.5355,0.0533,1.2172,-0.0051
-9.6486,-1.549,-2.3846,0.0714,1.3805,-0.0163
-9.6151,-1.5179,-2.5163,0.0794,1.5468,-0.0261
-9.4284,-1.5107,-2.8299,0.065,1.704,-0.0376
-9.268,-1.4533,-2.9257,0.0453,1.8453,-0.052
-9.2105,-1.4174,-3.2058,0.0253,1.9596,-0.0727
-9.2033,-1.3408,-3.4788,0.0032,2.0648,-0.0743
-9.3254,-1.3527,-3.8283,0.0139,2.1765,-0.0749
-9.3541,-1.4461,-4.0989,0.0677,2.3449,-0.0778
-9.3087,-1.4676,-4.4796,0.1903,2.5626,-0.0847
-9.347,-1.4676,-4.8387,0.3134,2.8346,-0.064
-9.5433,-1.5419,-5.1691,0.413,3.0878,-0.0378
-9.323,-1.6065,-5.3151,0.477,3.3063,-0.0386
-8.9783,-1.7358,-5.4396,0.4828,3.5314,-0.0666
-8.6957,-1.8196,-5.6024,0.4594,3.7627,-0.0778
-8.6694,-1.8675,-5.5809,0.4269,3.994,-0.0789
-8.6814,-2.0111,-5.2984,0.4221,4.1901,-0.0589
-8.8394,-1.8196,-5.1834,0.421,4.3825,-0.0562
-8.6479,-1.6879,-5.1451,0.3888,4.5528,-0.0783
-8.3773,-1.7286,-5.1882,0.3403,4.7769,-0.0805
-8.1762,-1.719,-5.3175,0.3368,5.0319,-0.0831
-7.9128,-1.6831,-5.3917,0.3448,5.2786,-0.0813
-7.4819,-1.7597,-5.4612,0.3547,5.5459,-0.0663
-7.0916,-1.8028,-5.4731,0.3778,5.839,-0.0778
-6.7469,-1.9944,-5.4564,0.38,6.171,-0.0693
-7.0653,-2.1835,-5.3917,0.4485,6.5718,-0.0517
-7.501,-1.8651,-5.7557,0.4663,6.908,-0.0442
-7.2305,-1.9704,-5.9304,0.4088,7.2302,-0.0813
-6.5242,-2.0662,-6.462,0.348,7.6443,-0.1591
-5.8586,-2.2362,-6.9312,0.2814,8.0794,-0.2158
-5.5115,-2.2841,-6.9168,0.2225,8.3946,-0.2372
-4.707,-2.2769,-6.9887,0.1812,8.5412,-0.2425
-3.7948,-2.1883,-7.3334,0.1383,8.6123,-0.2539
-2.9497,-2.1165,-7.6567,0.0648,8.5724,-0.2963
-2.3511,-2.0255,-8.0445,-0.0242,8.4322,-0.3403
-1.7693,-1.9082,-8.2624,-0.1082,8.174,-0.3837
-1.2306,-1.7358,-8.6694,-0.1897,7.8377,-0.4199
-0.7111,-1.7693,-8.9759,-0.2345,7.4959,-0.4367
-0.2394,-1.7286,-9.1913,-0.2422,7.0762,-0.4525
0.2777,-1.7166,-9.3877,-0.2318,6.6285,-0.4407
0.6536,-1.6017,-9.3422,-0.2084,6.228,-0.413
0.6009,-1.0175,-9.5002,-0.1972,5.8036,-0.4602
0.4262,-1.3934,-9.4834,-0.2846,5.2951,-0.5782
0.1891,-1.3958,-9.9503,-0.218,4.9058,-0.5788
-0.1125,-1.9728,-10.4938,-0.1591,4.4534,-0.3744
-0.0503,-1.6616,-11.3509,-0.1228,4.0689,-0.2278
-0.6823,-1.1612,-11.5089,-0.1282,3.7864,-0.3024
-1.0534,-0.8068,-12.0045,-0.1124,3.5325,-0.4207
-1.233,-0.9936,-12.153,-0.0328,3.3849,-0.4255
-0.9673,-1.1205,-11.0564,0.089,3.294,-0.3864
-0.7997,-1.5036,-10.331,0.2358,3.3428,-0.3818
-0.5243,-2.3918,-10.5991,0.299,3.5221,-0.3232
-0.1676,-2.648,-11.3222,0.2817,3.82,-0.2028
-0.0024,-2.6552,-11.5999,0.1769,4.0017,-0.2611
0.9313,-3.1029,-10.7739,0.0125,4.014,-0.3912
0.9433,-3.8834,-8.4874,-0.0067,3.8616,-0.5081
2.0183,-3.5793,-6.3327,0.057,3.3955,-0.5657
3.3423,-2.2913,-6.8546,-0.1258,2.9476,-0.4221
1.8292,-1.9896,-9.7396,-0.4112,2.7483,-0.1039
-0.8835,-2.2362,-10.0987,-0.2697,2.7845,-0.0757
-0.8691,-2.3894,-7.8506,0.0195,2.918,-0.1799
1.6616,-2.3487,-7.1922,-0.0176,3.1083,-0.2057
3.0813,-2.4301,-7.8554,-0.3533,3.2005,-0.234
3.6823,-2.4062,-8.4755,-0.6078,2.9974,-0.2782
4.1515,-2.3176,-8.588,-0.6206,2.7003,-0.3051
4.4245,-2.0016,-8.8059,-0.4767,2.4379,-0.2729
4.2497,-1.8411,-8.7819,-0.4112,2.1882,-0.2108
4.0414,-1.7478,-8.6263,-0.4298,1.9356,-0.182
4.027,-1.6759,-8.5258,-0.4541,1.7706,-0.2081
3.8858,-1.6616,-8.3175,-0.4642,1.6838,-0.2244
4.2018,-1.6807,-8.1379,-0.4754,1.5745,-0.2022
4.8147,-1.64,-7.7261,-0.5039,1.4429,-0.178
5.126,-1.5538,-7.8123,-0.559,1.2489,-0.1524
5.3558,-1.391,-7.92,-0.6158,0.983,-0.109
5.5905,-1.1636,-8.2504,-0.6262,0.7464,-0.056
5.5354,-0.8523,-8.5473,-0.595,0.5425,-0.0104
5.4899,-0.6584,-8.8322,-0.5641,0.3704,0.033
5.3175,-0.5483,-9.1028,-0.5305,0.219,0.0584
5.5067,-0.5387,-9.3829,-0.4922,0.0805,0.1026
5.3965,-0.5267,-9.6941,-0.4367,-0.0099,0.1279
5.3319,-0.5028,-9.8976,-0.3669,-0.0994,0.1511
5.0685,-0.5195,-9.8497,-0.3051,-0.1537,0.1841
5.0278,-0.589,-9.8569,-0.259,-0.218,0.2028
4.9919,-0.6752,-9.809,-0.227,-0.2438,0.2006
5.0135,-0.8523,-9.663,-0.2025,-0.2446,0.2164
4.9632,-0.8715,-9.5146,-0.2102,-0.2414,0.2305
4.9368,-0.9505,-9.4739,-0.2233,-0.255,0.2425
4.9392,-0.9433,-9.3326,-0.2214,-0.2739,0.2555
4.877,-0.8547,-9.2512,-0.214,-0.3024,0.2622
4.7309,-0.8068,-9.3541,-0.2212,-0.3528,0.2449
4.5442,-0.7518,-9.5648,-0.2209,-0.3893,0.2294
4.2329,-0.7159,-9.9479,-0.2153,-0.4306,0.2124
4.0103,-0.6752,-10.3334,-0.2044,-0.4535,0.2046
3.8283,-0.5866,-10.6326,-0.1961,-0.4722,0.1884
3.6559,-0.4741,-10.9008,-0.1815,-0.474,0.1847
3.6033,-0.4405,-10.9846,-0.1495,-0.4746,0.1679
3.5626,-0.4429,-11.0971,-0.113,-0.466,0.1519
3.4285,-0.5291,-11.054,-0.0749,-0.466,0.1375
3.3543,-0.5483,-11.0373,-0.0466,-0.4647,0.1242
3.2058,-0.6177,-11.0014,-0.025,-0.4362,0.1116
3.0694,-0.7302,-10.8553,-0.0141,-0.3917,0.0962
3.1029,-0.7781,-10.7236,-0.0189,-0.3552,0.0869
3.1771,-0.8619,-10.4531,-0.0226,-0.3288,0.0775
3.3112,-0.9098,-10.2544,-0.0224,-0.3075,0.0629
3.3303,-0.9553,-9.8809,-0.0155,-0.2896,0.0618
3.3399,-1.0606,-9.6223,-0.0131,-0.275,0.0629
3.3734,-1.1229,-9.3925,-0.0216,-0.2393,0.0717
3.4309,-1.1827,-9.2368,-0.0392,-0.2012,0.0778
3.5219,-1.1923,-9.2751,-0.0687,-0.1599,0.0757
3.5051,-1.1803,-9.5529,-0.097,-0.1322,0.0746
3.6248,-1.1301,-9.7755,-0.1135,-0.1364,0.0783
3.644,-1.0175,-9.9647,-0.1135,-0.1535,0.0855
3.6152,-0.9649,-10.0221,-0.1082,-0.1812,0.0845
3.5003,-0.8835,-10.1682,-0.093,-0.2054,0.0797
3.3232,-0.8715,-10.2999,-0.0842,-0.2382,0.0754
3.2633,-0.8547,-10.4483,-0.0727,-0.283,0.0725
3.2609,-0.8523,-10.5153,-0.0687,-0.3421,0.0701
3.2441,-0.8452,-10.3741,-0.0594,-0.4032,0.0693
3.2609,-0.8547,-10.2759,-0.0469,-0.4557,0.0648
3.146,-0.8739,-10.228,-0.0288,-0.5105,0.0632
3.1747,-0.9697,-10.2544,-0.0205,-0.5953,0.06
3.2777,-0.9864,-10.1347,-0.0197,-0.6843,0.0594
3.3184,-1.008,-10.0413,-0.0242,-0.7778,0.0522
3.2106,-1.0008,-10.0054,-0.0282,-0.874,0.0418
3.0502,-0.9625,-10.0269,-0.0293,-0.9699,0.0458
2.8156,-0.9816,-10.1514,-0.0224,-1.0408,0.0522
2.4636,-0.9936,-10.0652,-0.0021,-1.0848,0.0458
2.3463,-0.905,-10.1347,0.0179,-1.092,0.0512
2.332,-0.8475,-10.3118,0.0147,-1.0187,0.0546
2.0446,-0.8691,-10.422,0.0176,-0.9233,0.0517
1.8723,-0.8739,-10.4651,0.0336,-0.8367,0.0573
1.7933,-0.9697,-10.3525,0.0682,-0.74,0.0592
1.6951,-0.8906,-10.3717,0.1005,-0.6742,0.0525
1.8507,-0.8954,-10.2903,0.1092,-0.6139,0.0317
1.889,-1.0127,-10.173,0.1228,-0.5681,0.0234
1.8579,-1.1085,-10.3406,0.1383,-0.5177,0.0197
1.7573,-1.154,-10.1993,0.1274,-0.4999,0.0163
1.8004,-1.2091,-10.0461,0.0997,-0.49,0.0107
1.8771,-1.0965,-9.991,0.0703,-0.462,-0.004
1.9201,-1.0774,-10.1011,0.041,-0.4205,-0.0205
1.8411,-1.0223,-10.2208,0.0234,-0.3946,-0.0357
1.8771,-1.0032,-10.1969,0.0296,-0.3829,-0.0389
1.992,-0.9744,-10.3406,0.0389,-0.3789,-0.0325
2.1213,-0.8715,-10.4411,0.0445,-0.3746,-0.044
2.0518,-0.9768,-10.5345,0.0533,-0.3714,-0.0749
2.0159,-1.0582,-10.3741,0.0765,-0.3986,-0.0909
2.3248,-1.0965,-10.0461,0.0906,-0.4335,-0.0815
2.4852,-1.0942,-10.2137,0.0954,-0.4533,-0.0903
2.4708,-1.0367,-10.3956,0.0877,-0.4543,-0.1151
2.0949,-1.0798,-10.5417,0.0895,-0.4405,-0.1077
1.9154,-1.087,-10.3669,0.1047,-0.4812,-0.0946
1.8555,-0.996,-10.1754,0.1263,-0.494,-0.1071
1.8651,-1.0439,-10.2544,0.1162,-0.5095,-0.138
1.9441,-1.0247,-10.3286,0.1092,-0.5351,-0.1748
1.8723,-1.0511,-10.3358,0.1021,-0.5484,-0.2068
1.8507,-0.9385,-10.3693,0.0933,-0.5798,-0.2017
1.7047,-1.0032,-10.2759,0.0887,-0.6307,-0.1974
1.5443,-1.0391,-10.398,0.1039,-0.6699,-0.2257
1.5036,-1.0942,-10.2424,0.1247,-0.6683,-0.2585
1.4557,-0.9936,-9.9168,0.1402,-0.6227,-0.2699
1.5538,-1.0606,-9.8952,0.1431,-0.547,-0.2569
1.4389,-1.0702,-10.1897,0.1775,-0.5383,-0.2499
1.2881,-1.0367,-9.9503,0.1415,-0.5351,-0.238
1.3096,-1.2115,-9.4954,0.118,-0.4799,-0.2835
1.6257,-1.3072,-8.9184,0.13,-0.3541,-0.3256
1.6951,-1.3001,-8.8538,0.1543,-0.2236,-0.3293
1.3216,-1.3791,-9.0357,0.1855,-0.1575,-0.3158
1.0223,-1.2929,-9.2703,0.2004,-0.1095,-0.3043
0.8643,-1.0822,-9.2488,0.1772,-0.0714,-0.303
1.075,-0.7685,-9.3374,0.0925,-0.0213,-0.2502
1.4174,-0.8787,-9.2416,-0.0035,0.028,-0.1815
1.6161,-0.7638,-9.7851,-0.0088,0.0568,-0.2273
1.7262,-0.656,-10.4315,-0.0352,0.0149,-0.3102
1.731,-0.9673,-10.6853,-0.0165,-0.0426,-0.3776
1.7454,-1.075,-10.7428,0.0586,-0.0301,-0.3896
1.4772,-1.1492,-11.315,0.1258,-0.0125,-0.3315
1.2426,-1.0702,-11.4634,0.1609,-0.024,-0.2851
1.1157,-1.3001,-11.5281,0.2025,-0.0125,-0.3227
1.5131,-1.494,-11.2743,0.2729,0.0514,-0.3605
1.8435,-1.6472,-10.726,0.3158,0.1623,-0.3576
2.2984,-1.7717,-10.1131,0.3483,0.2726,-0.3008
2.3056,-1.7071,-10.0317,0.3301,0.3461,-0.3062
2.2122,-1.4748,-10.5105,0.3134,0.3648,-0.3933
1.8699,-0.7661,-11.145,0.1793,0.2979,-0.3565
2.1332,-1.1325,-11.0325,-0.0077,0.2116,-0.3429
2.3774,-1.2163,-10.738,-0.0799,0.1404,-0.3656
2.624,-1.2139,-10.3501,-0.0975,0.0554,-0.4042
2.5977,-1.3671,-10.1107,-0.0901,-0.0432,-0.417
2.6025,-1.3048,-10.1347,-0.04,-0.1735,-0.3834
2.7054,-1.2594,-10.5273,0.0128,-0.2699,-0.3304
2.7078,-1.1851,-10.8338,0.0663,-0.3144,-0.2859
2.5618,-1.1277,-11.0708,0.1218,-0.3792,-0.2414
2.3679,-1.1181,-11.0828,0.1492,-0.47,-0.2499
2.3679,-1.2546,-10.9487,0.1689,-0.5569,-0.2777
2.5067,-1.3216,-10.6997,0.1841,-0.6219,-0.2529
2.5953,-1.4461,-10.6494,0.2169,-0.6475,-0.2124
2.5067,-1.4653,-10.556,0.2747,-0.6765,-0.1998
2.6193,-1.5897,-10.4028,0.3147,-0.7512,-0.162
3.1484,-1.6951,-10.307,0.3307,-0.8316,-0.1324
3.2489,-1.7861,-10.3908,0.3355,-0.8996,-0.0863
3.1651,-1.719,-10.4004,0.2894,-1.1093,-0.0898
3.5219,-1.6017,-10.6159,0.1868,-1.437,-0.1303
3.8882,-1.7119,-10.5129,0.0727,-1.7269,-0.1442
4.1108,-1.7119,-10.5297,-0.0101,-2.0384,-0.1154
3.9097,-1.5203,-10.568,-0.0733,-2.3446,-0.0935
3.3662,-1.4461,-10.2783,-0.1223,-2.7214,-0.0709
3.3303,-1.3767,-9.9431,-0.1508,-3.1264,-0.0746
3.2058,-1.4006,-9.9168,-0.1095,-3.4352,-0.061
2.7294,-1.4222,-10.0676,-0.0293,-3.7278,0.0093
2.0973,-1.2689,-10.2448,0.0506,-4.0039,0.0586
1.7789,-1.1803,-10.4124,0.0943,-4.2389,0.0786
1.482,-1.1779,-10.228,0.1415,-4.3617,0.0847
1.1013,-1.2043,-10.1083,0.2108,-4.4116,0.0839
0.5507,-1.2713,-10.094,0.2646,-4.4747,0.1138
0.0431,-1.0319,-10.4746,0.2761,-4.5347,0.1423
-0.1053,-1.494,-10.4459,0.2923,-4.5016,0.1601
-0.5028,-1.3431,-10.2999,0.2995,-4.4571,0.2038
-1.008,-1.3072,-10.1801,0.2601,-4.4475,0.2334
-1.0008,-1.1708,-10.1394,0.2276,-4.4529,0.2286
-0.0646,-1.2115,-10.0269,0.1593,-4.4001,0.2132
-1.0391,-1.7047,-9.9934,0.1151,-4.3838,0.1788
-0.9409,-1.7142,-9.3925,0.1807,-4.6279,0.1697
-0.7829,-1.4796,-9.0166,0.1532,-4.9541,0.1343
-0.814,-1.5754,-8.8442,0.0933,-5.3399,0.158
-0.7781,-1.6879,-8.8059,0.1178,-5.7319,0.1436
-0.972,-1.233,-8.8442,0.1559,-6.0458,0.1164
-1.5299,-0.9218,-8.7173,0.1479,-6.2805,0.1079
-2.3104,-0.9026,-8.43,0.1394,-6.4151,0.1156
-3.4069,-0.759,-7.9655,0.1772,-6.559,0.0165
-3.7685,-0.7374,-7.5729,0.2129,-6.6434,0.0344
-4.7621,-0.8619,-7.6279,0.3062,-6.5742,-0.0056
-5.6862,-0.9361,-7.7141,0.4469,-6.4593,0.0288
-6.505,-0.8547,-7.8243,0.5899,-6.3082,0.0957
-6.5601,-0.9601,-8.0469,0.6877,-6.126,0.1487
-6.3351,-1.2617,-8.3869,0.7706,-5.855,0.1545
-6.3279,-1.6017,-8.2313,0.8316,-5.5206,0.097
-6.6272,-1.6807,-7.7405,0.8362,-5.2693,0.0877
-6.4236,-2.0063,-6.8905,0.8013,-5.1246,0.0624
-6.0406,-1.9872,-6.3518,0.7544,-5.0657,-0.0077
-6.0214,-1.8699,-6.3159,0.6712,-4.9834,-0.0104
-6.3518,-1.8004,-6.2584,0.5689,-4.9525,0.028
-6.462,-1.6424,-6.1675,0.4831,-4.9056,-0.0048
-6.359,-1.7382,-5.8395,0.3933,-4.8757,0.0157
-6.7325,-1.6448,-5.4947,0.3874,-4.7705,-0.0703
-7.3646,-1.4126,-5.1715,0.3869,-4.6594,-0.1226
-8.011,-1.4341,-4.9632,0.389,-4.4798,-0.0813
-8.9184,-1.4916,-5.0015,0.4391,-4.2296,-0.0509
-9.0429,-1.7047,-5.4923,0.5292,-3.9207,-0.0685
-8.5928,-1.9393,-5.9927,0.5985,-3.5783,-0.0906
-7.8338,-2.4612,-5.9113,0.6169,-3.1288,0.0293
-8.2121,-2.4565,-5.5689,0.6097,-2.7675,0.0402
-8.0685,-2.3104,-5.3127,0.5247,-2.6494,-0.0498
-7.3646,-2.3128,-5.114,0.3691,-2.5655,-0.045
-6.9935,-2.2745,-4.7716,0.2555,-2.3491,-0.0053
-7.3526,-2.1093,-4.4748,0.2004,-2.2162,-0.0125
-7.762,-1.6783,-4.4341,0.1543,-2.0976,-0.0221
-7.8506,-1.6065,-4.3742,0.1172,-1.9777,-0.012
-8.0349,-1.5634,-4.2665,0.1268,-1.8162,0.0336
-8.1834,-1.5778,-4.2521,0.1958,-1.6401,0.0874
-8.0613,-1.5897,-4.3096,0.2862,-1.4178,0.133
-8.5234,-1.6807,-4.2737,0.3597,-1.1535,0.1522
-8.7269,-1.7837,-4.3096,0.3877,-0.9166,0.1655
-8.3677,-2.0638,-4.4269,0.3746,-0.6912,0.1948
-7.8147,-2.0614,-4.0773,0.3246,-0.4794,0.2022
-7.6136,-2.0997,-3.8044,0.2158,-0.3387,0.1639
-7.6926,-1.834,-3.8427,0.0706,-0.3163,0.129
-7.4005,-1.5682,-3.9959,-0.0973,-0.3198,0.113
-7.2257,-1.5443,-4.1276,-0.2012,-0.3086,0.1029
-7.3334,-1.2546,-4.0917,-0.1812,-0.3054,0.1284
-7.525,-1.1157,-3.8882,-0.1037,-0.3608,0.1514
-7.6375,-1.0678,-3.9169,0.0189,-0.396,0.1884
-8.1187,-1.0343,-4.0127,0.146,-0.3818,0.2236
-8.6598,-1.166,-4.1946,0.2134,-0.3166,0.2297
-8.8969,-1.5658,-4.3886,0.2433,-0.2249,0.2217
-8.3629,-1.9369,-4.0534,0.2435,-0.0754,0.2201
-8.43,-2.1332,-3.7134,0.1982,0.0877,0.2073
-8.4922,-2.0734,-3.6655,0.0959,0.1255,0.2009
-8.2001,-1.9656,-3.79,-0.0211,0.1588,0.1884
-8.1427,-1.7286,-3.8978,-0.0903,0.2041,0.1687
-7.8865,-1.4916,-3.9385,-0.1154,0.1625,0.1575
-7.4484,-1.4198,-4.0031,-0.1274,0.0935,0.133
-7.2856,-1.4054,-4.221,-0.1335,-0.0237,0.1061
-7.343,-1.3551,-4.3263,-0.1319,-0.1561,0.0922
-7.6926,-1.5538,-4.1587,-0.0991,-0.2726,0.1021
-8.2672,-1.3886,-3.9385,-0.0226,-0.3677,0.1324
-8.7245,-1.3336,-4.1444,0.0437,-0.3965,0.1532
-9.1411,-1.3982,-4.4317,0.0967,-0.3112,0.1649
-9.402,-1.5754,-4.4388,0.1434,-0.1354,0.1687
-9.4715,-1.7957,-4.4412,0.1855,0.0685,0.1663
-9.2919,-1.968,-4.3958,0.2094,0.2324,0.1612
-8.9423,-2.0686,-4.6783,0.2009,0.3528,0.1721
-8.6766,-2.1117,-4.8842,0.1668,0.4381,0.1716
-8.5449,-1.992,-4.4963,0.121,0.4964,0.1548
-8.5425,-1.8842,-4.0175,0.0738,0.4799,0.1386
-8.3582,-1.719,-4.0462,0.0549,0.4117,0.1455
-8.169,-1.5323,-4.2234,0.0562,0.3461,0.1551
-8.1379,-1.4246,-4.2186,0.0578,0.2731,0.15
-8.3175,-1.3767,-4.13,0.0565,0.1767,0.1458
-8.4922,-1.3743,-4.2114,0.0663,0.0861,0.15
-8.7652,-1.47,-4.2329,0.0847,0.0493,0.1471
-9.098,-1.5395,-4.2569,0.109,0.0914,0.1386
-9.4739,-1.6041,-4.1611,0.1343,0.1945,0.1364
-9.7947,-1.6209,-3.9241,0.1532,0.3448,0.1367
-10.0628,-1.6664,-3.9744,0.1623,0.5433,0.1362
-10.0796,-1.6592,-3.9911,0.1663,0.7863,0.1175
-10.0676,-1.7023,-4.0606,0.1689,1.0616,0.0879
-10.0365,-1.731,-4.2306,0.1759,1.3376,0.077
-9.9671,-1.7119,-4.4245,0.2041,1.595,0.0783
-9.8809,-1.7142,-4.7645,0.2238,1.8287,0.0725
-9.6965,-1.6951,-5.3008,0.219,2.0376,0.0632
-9.1866,-1.7885,-5.5665,0.1937,2.1813,0.0416
-8.5688,-1.9465,-5.5857,0.203,2.2908,0.0171
-8.1523,-1.9178,-5.6743,0.2038,2.3673,0.0104
-8.0804,-1.9106,-5.7221,0.1711,2.4078,0.0109
-8.1451,-1.6927,-5.6982,0.1127,2.4296,-0.004
-8.3007,-1.8028,-5.5641,0.0157,2.4757,-0.0304
-8.2193,-1.9513,-5.6312,0.0019,2.5383,-0.004
-8.1618,-1.7142,-5.6096,0.0472,2.6625,-0.0192
-7.8745,-1.6233,-5.6336,0.0685,2.8312,-0.0376
-7.8769,-1.6209,-5.3774,0.0893,3.0166,-0.0466
-8.157,-1.7621,-5.3822,0.1279,3.2029,-0.0477
-8.0397,-1.652,-5.6934,0.1527,3.3849,-0.0253
-8.0876,-1.7454,-6.1363,0.1625,3.6577,-0.0096
-7.8434,-1.8004,-6.3901,0.1764,3.9458,-0.0037
-7.7141,-1.9632,-6.5194,0.2108,4.2807,0.0181
-7.3167,-1.8579,-6.5577,0.2467,4.5994,0.0085
-7.1491,-1.7621,-6.596,0.2545,4.9471,-0.0056
-7.0174,-1.6616,-6.8714,0.2073,5.2445,-0.0309
-6.8929,-2.047,-6.6559,0.1801,5.5576,-0.0053
-6.6918,-1.9393,-6.9192,0.21,5.8326,0.0314
-6.1603,-1.6424,-7.1395,0.1591,6.0218,-0.016
-5.5354,-1.8675,-6.6367,0.033,6.1606,-0.1362
-5.3726,-1.8268,-6.359,-0.0306,6.2797,-0.1844
-5.0326,-1.7166,-6.3231,-0.0855,6.385,-0.2097
-4.4341,-1.7621,-6.2082,-0.145,6.5001,-0.2164
-4.8674,-1.8914,-7.0797,-0.3317,6.657,-0.0903
-4.6711,-1.7861,-6.9528,-0.2891,6.6456,-0.2201
-3.7086,-1.7454,-7.1275,-0.3179,6.6533,-0.3898
-3.0311,-1.6999,-7.8889,-0.3296,6.7093,-0.3483
-2.217,-1.664,-8.4779,-0.3698,6.7146,-0.3176
-1.9201,-1.9609,-8.521,-0.3411,6.6469,-0.2249
-1.2641,-1.7885,-8.6359,-0.202,6.4689,-0.1034
-1.142,-1.5993,-8.9519,-0.1188,6.2821,-0.0189
-1.1444,-1.2282,-9.2249,-0.1138,6.1084,-0.0493
-1.5467,-1.1756,-9.4715,-0.2188,5.9083,-0.1559
-1.4964,-1.3958,-9.8976,-0.3072,5.6178,-0.215
-1.1157,-1.6568,-10.0796,-0.3022,5.358,-0.1649
-0.7111,-1.3575,-9.9671,-0.2747,5.0886,-0.1092
-0.7183,-1.1253,-9.9359,-0.2523,4.8757,-0.1737
-0.3591,-1.245,-10.228,-0.3259,4.4619,-0.1476
-0.1508,-1.4605,-11.0301,-0.3784,4.1288,-0.1306
-0.4908,-0.9146,-11.3916,-0.3277,3.7974,-0.1452
-0.4166,-0.4214,-11.4778,-0.2435,3.4368,-0.2076
-0.2035,-0.6297,-11.8082,-0.162,3.1618,-0.2521
0.1676,-1.0989,-12.4618,-0.0117,3.0283,-0.2193
0.4429,-1.6927,-12.2559,0.1122,2.9894,-0.1319
0.3041,-1.9225,-11.8513,0.1841,3.0275,-0.0935
0.5363,-2.6887,-11.0349,0.1431,2.9609,-0.1258
0.0886,-3.1005,-10.0102,0.0807,2.9084,-0.1308
-0.0168,-2.739,-9.2967,-0.0165,2.6199,-0.2374
0.735,-2.1452,-9.2105,-0.1753,2.3278,-0.3008
0.6057,-1.7382,-9.8497,-0.2611,2.4285,-0.1569
-0.8859,-1.5921,-10.4555,-0.2036,2.61,-0.0749
-1.494,-1.6257,-8.9663,-0.0456,2.7256,-0.0634
-0.1844,-1.7549,-7.8769,0.0296,2.8831,-0.0751
0.7207,-1.9896,-8.0732,-0.0525,3.0553,-0.138
1.3264,-2.2817,-8.2313,-0.1873,3.0403,-0.2278
1.5107,-2.3248,-8.1307,-0.2489,2.9601,-0.2257
1.7047,-2.1476,-8.0302,-0.2446,2.8805,-0.1937
1.7549,-2.0039,-8.1762,-0.235,2.9393,-0.1418
1.5993,-1.7693,-8.1642,-0.2649,3.0297,-0.0746
1.9225,-1.585,-8.4683,-0.3491,3.0395,-0.1164
2.5857,-1.5203,-8.8442,-0.405,3.0046,-0.1466
3.158,-1.4222,-9.0214,-0.4309,2.9338,-0.1196
3.96,-1.4054,-9.3733,-0.4178,2.7792,-0.0746
4.5179,-1.4485,-9.3901,-0.3813,2.5655,-0.0496
4.5897,-1.415,-9.3757,-0.3363,2.343,-0.0298
4.7309,-1.3934,-9.2584,-0.3014,2.0584,-0.0448
4.7525,-1.4461,-9.1243,-0.2846,1.7528,-0.0634
4.7262,-1.4533,-9.1291,-0.3155,1.44,-0.0592
4.7118,-1.3312,-9.3206,-0.3691,1.1636,-0.0807
4.6519,-1.1564,-9.6247,-0.3912,0.93,-0.0925
4.5418,-0.8906,-9.9335,-0.376,0.7424,-0.0837
4.4436,-0.577,-10.0533,-0.3531,0.5854,-0.0685
4.2473,-0.5267,-10.2017,-0.3392,0.4828,-0.037
4.2808,-0.2658,-10.2663,-0.2782,0.2947,-0.0661
4.5203,-0.4286,-10.0341,-0.2132,0.2185,-0.0365
4.3718,-0.4645,-10.0293,-0.1279,0.154,-0.0242
4.3144,-0.6273,-9.8114,-0.0954,0.0919,0.0192
4.2641,-0.8619,-9.6558,-0.0981,0.049,0.012
4.1084,-0.9146,-9.5624,-0.0954,0.0357,-0.0059
3.9983,-0.917,-9.3901,-0.0887,0.0253,0.0306
4.0247,-0.838,-9.074,-0.101,0.0394,0.0469
4.1994,-0.8595,-9.0812,-0.1114,0.0506,0.0301
4.4532,-0.9242,-9.1028,-0.133,0.0226,0.0173
4.6926,-0.9505,-9.232,-0.1471,-0.0325,0.0269
4.7046,-0.9553,-9.5385,-0.1583,-0.1244,0.0298
4.7884,-0.905,-9.6941,-0.1644,-0.2446,0.032
4.6902,-0.8092,-9.9024,-0.1663,-0.3531,0.0309
4.3694,-0.7973,-10.1323,-0.1729,-0.4546,0.0352
4.2737,-0.6393,-10.2927,-0.1463,-0.546,0.0221
3.9696,-0.644,-10.3142,-0.117,-0.5702,0.0211
3.6943,-0.5674,-10.3118,-0.0783,-0.5646,0.0232
3.5458,-0.6177,-10.4435,-0.0592,-0.5438,0.0354
3.4955,-0.6847,-10.4339,-0.0602,-0.5071,0.0376
3.4596,-0.7183,-10.5704,-0.0616,-0.4639,0.0203
3.3519,-0.7326,-10.5943,-0.0589,-0.4293,0.0139
3.3112,-0.7254,-10.5034,-0.0448,-0.3928,0.0091
3.3208,-0.7159,-10.4124,-0.0234,-0.3533,-0.0005
3.3734,-0.7997,-10.2735,-0.0136,-0.316,-0.0059
3.4093,-0.8332,-10.2735,-0.0104,-0.2854,-0.0064
3.395,-0.8643,-10.2017,-0.0195,-0.267,-0.0131
3.4548,-0.8428,-10.1801,-0.0389,-0.2782,-0.0149
3.5338,-0.7949,-10.24,-0.0501,-0.3131,-0.0117
3.6105,-0.7853,-10.1897,-0.0472,-0.3912,-0.0096
3.8642,-0.7757,-9.9934,-0.0402,-0.4922,-0.004
3.9959,-0.8068,-10.0102,-0.0256,-0.5814,-0.0011
3.9696,-0.8499,-10.0006,-0.0184,-0.6971,-0.0077
3.8164,-0.905,-10.1083,-0.0224,-0.8132,-0.0029
3.553,-0.8906,-10.1083,-0.0261,-0.906,0.0013
3.3782,-0.8595,-10.1227,-0.0328,-0.9478,-0.0109
3.1627,-0.8092,-10.1873,-0.0381,-0.9662,-0.0149
2.988,-0.7997,-10.3286,-0.0368,-0.9747,-0.0099
2.909,-0.7757,-10.422,-0.0325,-0.9689,-0.0083
2.7318,-0.7254,-10.4818,-0.0216,-0.9526,-0.0099
2.636,-0.7877,-10.4579,-0.0059,-0.9515,-0.0104
2.5953,-0.826,-10.4339,0.0069,-0.9462,-0.0115
2.557,-0.8332,-10.3358,0.0213,-0.9305,-0.0157
2.4086,-0.8739,-10.3286,0.0314,-0.8831,-0.0171
2.229,-0.9002,-10.2903,0.0304,-0.8255,-0.0242
2.1045,-0.9194,-10.3765,0.0325,-0.7823,-0.0261
2.229,-1.0223,-10.3765,0.0416,-0.7498,-0.0197
2.2817,-1.0343,-10.319,0.0629,-0.7152,-0.0115
2.2386,-0.9864,-10.422,0.0573,-0.712,-0.0221
2.1955,-0.9936,-10.4579,0.0306,-0.7394,-0.0293
2.2458,-0.8475,-10.5752,0.0048,-0.7826,-0.04
2.1979,-0.7805,-10.4962,-0.0144,-0.8106,-0.0608
2.1069,-0.8188,-10.5129,0.0088,-0.8487,-0.0786
2.0758,-0.7973,-10.5369,0.0448,-0.918,-0.0842
2.1859,-0.7542,-10.5536,0.0485,-1.0078,-0.1154
2.1284,-0.8739,-10.5848,0.0514,-1.0786,-0.114
2.0853,-0.9002,-10.6374,0.0498,-1.194,-0.1244
2.0853,-0.9122,-10.4507,0.0597,-1.2963,-0.1311
2.162,-0.9625,-10.3166,0.0674,-1.3813,-0.1343
2.1141,-0.9792,-10.2975,0.0727,-1.4554,-0.1412
2.0446,-1.0271,-10.1945,0.0802,-1.4759,-0.1335
1.8268,-0.972,-10.2759,0.0914,-1.4725,-0.1223
1.5514,-0.9481,-10.1682,0.0914,-1.4733,-0.1074
1.5012,-1.0104,-10.0604,0.0901,-1.4887,-0.0973
1.5874,-1.0343,-10.0437,0.0954,-1.5074,-0.0983
1.6424,-1.0367,-10.0892,0.0858,-1.5495,-0.1103
1.7669,-0.984,-10.1323,0.0661,-1.6014,-0.1148
1.6376,-1.0391,-10.0245,0.0501,-1.6659,-0.1143
1.4413,-0.9912,-10.07,0.0597,-1.7576,-0.0925
1.4389,-1.0918,-10.003,0.0711,-1.8367,-0.0778
1.3336,-1.1995,-10.2879,0.0935,-1.9215,-0.0834
1.1756,-1.1947,-10.2951,0.0954,-1.9902,-0.0874
1.1612,-1.1061,-9.9742,0.0794,-2.0504,-0.0663
1.2043,-1.1851,-9.6414,0.0517,-2.1144,-0.0416
1.1085,-1.2737,-9.6558,0.0741,-2.1237,-0.0277
0.8763,-1.2354,-10.2448,0.1266,-2.1114,-0.0218
0.735,-1.0127,-10.3406,0.1436,-2.1855,-0.0312
0.6249,-1.0008,-9.9359,0.0834,-2.1791,-0.0083
0.3496,-0.9864,-9.6247,0.0512,-2.149,-0.0048
0.1317,-0.9792,-9.6486,0.0256,-2.1458,-0.0045
0.3089,-1.0175,-9.8545,0.0309,-2.0984,0.0242
0.3974,-1.1253,-10.1275,0.0528,-2.0262,0.0562
0.5219,-1.2354,-9.8186,0.0938,-1.9849,0.0845
0.9361,-1.075,-9.6295,0.1204,-1.9486,0.1122
0.7781,-1.1133,-9.5361,0.1242,-1.9886,0.1055
0.6345,-1.0918,-9.5433,0.0954,-2.1341,0.0981
0.4693,-1.0558,-9.8641,0.0434,-2.2929,0.0703
0.4286,-1.0199,-9.991,-0.0203,-2.4363,0.0552
0.3543,-0.8356,-9.7037,-0.085,-2.5418,0.0877
-0.2849,-0.9625,-9.0932,-0.1154,-2.5919,0.1127
-1.063,-0.68,-9.2632,-0.0312,-2.6939,0.129
-1.4676,-0.6081,-9.7731,0.0013,-2.898,0.1106
-1.2402,-0.7398,-10.0413,0.0093,-2.9431,0.0933
-1.3958,-0.8404,-9.6989,0.0091,-2.7709,0.0695
-2.2745,-0.9744,-9.2991,0.0128,-2.6566,0.0613
-2.7031,-0.8691,-9.3685,0.0426,-2.6159,0.0293
-3.1795,-0.7302,-9.912,0.0767,-2.5122,0.0029
-3.2441,-0.8643,-10.4818,0.1212,-2.327,0.0003
-3.1268,-1.0271,-10.5704,0.182,-2.0494,0.0181
-2.988,-1.0702,-10.3406,0.2417,-1.7392,0.0488
-2.739,-1.0894,-9.8833,0.2489,-1.5274,0.0842
-2.2625,-1.2115,-9.6678,0.2204,-1.425,0.0989
-1.9728,-1.1971,-9.9527,0.1977,-1.3856,0.0858
-1.8723,-1.1085,-10.2544,0.1524,-1.3939,0.0586
-1.6161,-1.1708,-10.3884,0.0679,-1.4671,0.0088
-1.4054,-1.3336,-10.4722,-0.0101,-1.5921,-0.0365
-1.506,-1.2881,-10.4531,-0.0525,-1.7754,-0.045
-1.5179,-1.1995,-10.635,-0.0802,-1.9689,-0.0469
-1.8986,-1.2186,-10.9247,-0.0602,-2.1663,-0.0424
-2.3511,-1.0032,-10.9319,0.008,-2.4054,-0.0293
-2.2482,-0.9936,-10.6422,0.0597,-2.59,-0.0157
-2.49,-1.0104,-10.2496,0.1274,-2.6604,-0.0088
-2.7605,-1.0774,-9.9479,0.1767,-2.7155,-0.0139
-2.885,-0.9625,-9.8258,0.1951,-2.736,-0.0168
-3.9121,-1.1827,-10.0197,0.1887,-2.7555,-0.0051
-4.1156,-1.1396,-9.8928,0.1974,-2.869,-0.0048
-3.474,-1.1325,-9.6391,0.1585,-2.8794,0.0013
-3.2753,-1.3288,-9.3134,0.137,-2.7891,0.0075
-3.9696,-1.3623,-9.1267,0.129,-2.7691,-0.0048
-4.4173,-1.3862,-9.0956,0.1164,-2.8983,-0.0306
-4.2234,-1.3144,-9.256,0.1132,-2.9926,-0.0437
-4.525,-1.1037,-9.6582,0.1258,-2.9804,-0.0624
-4.3215,-1.0223,-9.6702,0.1292,-2.9553,-0.0485
-4.4748,-1.0822,-9.505,0.1529,-2.8789,-0.0517
-4.853,-1.0439,-9.2512,0.1985,-2.8562,-0.077
-4.9488,-1.1013,-9.0142,0.2241,-2.8901,-0.0847
-5.1451,-1.1995,-9.0309,0.2505,-2.8911,-0.0909
-5.2792,-1.2139,-9.0022,0.2654,-2.869,-0.0709
-5.2577,-1.221,-8.8035,0.2633,-2.7901,-0.0578
-5.782,-1.3001,-8.6407,0.2739,-2.7062,-0.0853
-5.5952,-1.3312,-8.5377,0.2638,-2.7083,-0.0703
-5.5043,-1.3623,-8.6,0.2505,-2.6537,-0.0645
-5.5402,-1.2594,-8.4108,0.234,-2.6324,-0.0906
-5.3941,-1.3096,-8.2025,0.1548,-2.7038,-0.1186
-5.3463,-1.5155,-8.2289,0.0893,-2.8048,-0.1343
-4.9895,-1.5323,-8.3318,0.0618,-2.8922,-0.1378
-4.944,-1.3408,-8.26,0.0695,-2.8807,-0.1543
-5.1882,-1.2282,-7.9248,0.0693,-2.9103,-0.1863
-5.284,-1.3336,-7.5369,0.0853,-2.9932,-0.1665
-5.5162,-1.1923,-7.2856,0.1447,-3.1347,-0.1564
-5.3941,-1.2522,-7.1036,0.1889,-3.2972,-0.1748
-5.4181,-1.4126,-6.936,0.2393,-3.4062,-0.2033
-5.9089,-1.4174,-6.7947,0.2899,-3.4859,-0.1748
-6.2058,-1.3288,-6.4548,0.3102,-3.6183,-0.1804
-6.596,-1.3982,-6.3087,0.312,-3.7036,-0.2209
-6.5386,-1.3886,-6.122,0.2971,-3.7702,-0.2489
-6.7971,-1.482,-6.1723,0.2577,-3.7619,-0.2361
-7.1275,-1.4413,-6.0669,0.2257,-3.7275,-0.2326
-7.3813,-1.3431,-5.8921,0.1857,-3.7148,-0.1879
-7.4747,-1.3264,-5.5186,0.1689,-3.6204,-0.222
-8.2097,-1.3048,-5.521,0.1727,-3.5082,-0.299
-8.2791,-1.5443,-5.8371,0.1631,-3.4419,-0.2182
-7.8458,-1.6568,-6.1004,0.2316,-3.2498,-0.1482
-7.9607,-1.6017,-6.2632,0.2803,-3.0102,-0.1359
-7.8003,-1.6257,-5.7509,0.2904,-2.8815,-0.1711
-7.4939,-1.5826,-5.0973,0.2526,-2.8397,-0.2366
-6.7708,-1.7406,-4.5825,0.1569,-2.8541,-0.3118
-7.264,-1.9752,-4.616,0.0887,-2.7542,-0.1535
-7.5848,-1.6281,-4.3407,0.1103,-2.7507,-0.1087
-7.7285,-1.3791,-4.0941,0.1002,-2.7078,-0.1572
-7.8697,-1.3048,-3.893,0.041,-2.7478,-0.2499
-7.2999,-1.7454,-3.9672,-0.0144,-2.7003,-0.17
-7.8482,-1.6065,-4.5322,-0.0139,-2.6249,-0.1164
-7.7668,-1.5538,-4.8746,-0.0133,-2.6353,-0.1263
-7.7812,-1.5562,-4.774,0.0059,-2.5466,-0.052
-8.078,-1.6807,-4.3311,0.0333,-2.484,0.0115
-7.9128,-1.6448,-4.0941,0.1388,-2.387,-0.0557
-8.2289,-1.6257,-4.0677,0.2049,-2.2513,-0.0666
-8.8921,-1.5778,-3.5961,0.2332,-2.1208,-0.0605
-9.0501,-1.4844,-3.6105,0.2004,-1.9329,-0.0858
-8.8298,-1.7789,-4.6543,0.1697,-1.72,-0.1239
-7.865,-1.9465,-4.7692,0.1322,-1.4661,0.0445
-7.75,-1.6352,-3.7972,0.0759,-1.2793,0.0147
-8.0972,-1.3527,-2.727,0.0061,-1.2998,-0.1154
-7.8985,-1.6664,-2.6911,-0.0605,-1.4115,-0.0818
-8.2337,-1.4772,-3.1723,0.0338,-1.4072,-0.016
-8.4539,-1.4102,-3.0885,0.1466,-1.3182,0.0179
-8.8202,-1.3312,-2.648,0.2318,-1.1714,0.0128
-9.007,-1.3791,-2.4325,0.247,-1.0571,0.0248
-9.3518,-1.5945,-2.5738,0.2313,-0.9297,0.0248
-9.1602,-1.5754,-2.7438,0.2254,-0.7584,-0.0003
-9.572,-1.6496,-3.0502,0.1905,-0.5564,0.0072
-9.4834,-1.6783,-3.0478,0.1628,-0.3858,0.0147
-9.0214,-1.7837,-2.7605,0.1434,-0.2625,0.0059
-8.5186,-1.8268,-2.6073,0.1375,-0.1503,-0.0248
-8.418,-1.6855,-2.6312,0.0946,-0.1319,-0.0008
-8.3845,-1.5155,-2.6336,0.0517,-0.1519,0.0083
-8.5712,-1.3048,-2.4708,0.0325,-0.1617,0.0077
-9.0261,-1.1779,-2.4397,0.0469,-0.1641,0.0192
-8.8705,-1.2809,-2.818,0.0917,-0.1319,0.0504
-8.7628,-1.4772,-2.8467,0.1482,0.0336,0.0616
-8.9807,-1.6305,-2.6288,0.1812,0.1663,0.0514
-9.1554,-1.7119,-2.5809,0.1729,0.2617,0.0445
-9.3374,-1.7286,-2.7701,0.1351,0.3709,0.0426
-9.3015,-1.8579,-2.9377,0.097,0.4517,0.0541
-8.7101,-1.8842,-3.1651,0.0903,0.5308,0.0733
-8.418,-1.8699,-3.1915,0.0821,0.5372,0.077
-8.3749,-1.7717,-2.9473,0.048,0.4626,0.0637
-8.4851,-1.5203,-2.7988,0.0053,0.3142,0.0509
-8.576,-1.4605,-2.7964,-0.0195,0.1684,0.0456
-8.6455,-1.4078,-2.909,-0.0011,0.0586,0.0565
-8.5665,-1.4796,-2.8778,0.0474,-0.0117,0.0618
-8.5641,-1.6233,-2.8323,0.0837,-0.0637,0.0653
-8.7197,-1.7526,-3.1196,0.0999,-0.1124,0.0754
-8.9399,-1.8435,-3.1867,0.1018,-0.1167,0.0634
-9.2751,-1.8268,-3.0071,0.0813,-0.0725,0.0466
-9.5289,-1.822,-3.1292,0.0568,-0.0136,0.0386
-9.402,-1.8459,-3.0957,0.041,0.0845,0.0282
-9.3948,-1.8411,-3.055,0.0453,0.2041,0.0157
-9.3374,-1.81,-2.9904,0.0533,0.2838,0.0085
-9.2392,-1.7334,-2.8563,0.049,0.3355,-0.0024
-9.2177,-1.64,-2.8084,0.0466,0.3584,-0.0109
-9.007,-1.5993,-2.6504,0.0346,0.3435,-0.0197
-8.9399,-1.6305,-2.7988,0.0272,0.3158,-0.0184
-8.8155,-1.6185,-3.1244,0.0139,0.2545,-0.0069
-8.5784,-1.6735,-3.4548,0.0147,0.2038,0.0088
-8.4898,-1.6185,-3.3806,0.0328,0.1551,0.0115
-8.6263,-1.5371,-3.395,0.0269,0.0962,-0.0005
-8.8873,-1.6927,-3.4213,0.0293,0.0666,-0.0053
-9.0549,-1.6352,-3.4022,0.073,0.1026,0.0048
-9.3039,-1.5562,-3.5314,0.1029,0.1972,0.0024
-9.4284,-1.7047,-3.5961,0.1178,0.344,0.0053
-9.4379,-1.7286,-3.632,0.1514,0.5071,0.0125
-9.4164,-1.7909,-3.7062,0.17,0.6803,0.0184
-9.3039,-1.8531,-3.7637,0.1777,0.8378,0.0144
-9.2177,-1.7837,-3.7589,0.1719,0.9912,0.0109
-9.153,-1.7741,-3.632,0.1713,1.1325,0.0099
-9.2225,-1.6831,-3.4668,0.178,1.279,0.0179
-9.3422,-1.6185,-3.5338,0.1791,1.4242,0.0426
-9.3158,-1.6305,-3.5314,0.1932,1.6158,0.0602
-9.3996,-1.6759,-3.6464,0.2116,1.8399,0.0778
-9.3877,-1.5682,-3.8906,0.2321,2.0592,0.0949
-9.2584,-1.64,-3.9121,0.2188,2.3129,0.1164
-9.2919,-1.5514,-3.9073,0.2006,2.5788,0.1252
-9.3398,-1.6257,-4.1803,0.1943,2.8559,0.1362
-9.3829,-1.5658,-4.6687,0.2036,3.1445,0.1399
-9.256,-1.7142,-4.8387,0.1982,3.3628,0.129
-8.5928,-1.7693,-4.8076,0.198,3.5831,0.0999
-8.5617,-1.8699,-4.8483,0.2017,3.803,0.0877
-8.5545,-1.8555,-4.7094,0.1727,3.973,0.0893
-8.7412,-1.9776,-4.5203,0.1506,4.1565,0.1167
-8.8801,-1.6855,-4.5825,0.1652,4.3908,0.1492
-8.6886,-1.506,-4.7357,0.1095,4.6111,0.1231
-8.2983,-1.2761,-4.7501,-0.0261,4.8789,0.1596
-8.2696,-2.0016,-5.0398,-0.0568,5.1526,0.1668
-7.7548,-1.7813,-5.1475,0.0592,5.4401,0.0975
-7.4962,-1.6257,-5.2289,0.1545,5.7905,0.1162
-7.2808,-1.5778,-5.0757,0.2348,6.1358,0.138
-7.3909,-1.6664,-4.7238,0.3054,6.5321,0.1871
-7.2065,-1.8028,-5.3151,0.3504,6.9302,0.1913
-7.173,-1.8052,-5.4277,0.3184,7.3959,0.1745
-6.6942,-1.8603,-5.7772,0.215,7.766,0.1503
-6.1651,-1.8914,-6.1483,0.0658,8.0562,0.0757
-5.375,-1.9585,-6.1962,-0.0757,8.2481,0.0136
-4.561,-1.8483,-6.1603,-0.2241,8.3147,-0.004
-3.9025,-1.9273,-6.4093,-0.3371,8.2936,-0.0232
-3.6081,-1.9249,-7.0174,-0.3579,8.1628,-0.0496
-3.1532,-1.6616,-7.5896,-0.3475,7.8409,-0.1079
-2.7342,-1.3743,-8.8083,-0.404,7.3474,-0.1282
-1.9106,-1.0391,-10.4842,-0.4684,6.806,-0.1319
-1.561,-1.2402,-10.8816,-0.4583,6.3887,-0.0895
-1.482,-1.2713,-10.4531,-0.3224,6.0039,-0.0661
-1.0463,-1.549,-10.568,-0.2366,5.6469,-0.0815
-0.7949,-2.0111,-10.9152,-0.2076,5.406,-0.109
-0.7685,-2.4134,-10.5465,-0.2326,5.0932,-0.1207
-1.1684,-2.3727,-9.9982,-0.1796,4.8176,-0.1881
-1.5347,-2.5714,-8.6072,-0.2507,4.3505,-0.1804
-1.494,-2.1476,-8.1331,-0.3523,3.9269,-0.2102
-1.3455,-1.2881,-9.2416,-0.4863,3.6103,-0.2406
-2.308,-0.9218,-10.6207,-0.5345,3.488,-0.2427
-3.371,-1.1516,-10.2328,-0.3179,3.541,-0.2081
-4.2018,-1.1612,-8.7029,-0.0101,3.7315,-0.2228
-3.8451,-1.1803,-7.8626,0.1332,3.8962,-0.1745
-2.5833,-1.4676,-7.8578,0.064,4.1144,-0.1847
-2.217,-1.7406,-8.0278,-0.0632,4.3884,-0.23
-1.5897,-1.8651,-7.6543,-0.1783,4.6258,-0.2094
-1.1588,-1.8747,-8.09,-0.2721,4.8214,-0.1636
-0.4549,-1.7047,-8.4443,-0.3936,4.8661,-0.1607
0.644,-1.6855,-8.5497,-0.5217,4.8115,-0.1604
1.7214,-1.652,-8.983,-0.5529,4.6863,-0.1471
2.9688,-1.4653,-9.2895,-0.502,4.5272,-0.1553
3.5626,-1.4389,-9.4475,-0.4024,4.2741,-0.174
4.0893,-1.3455,-9.663,-0.2998,3.8541,-0.1823
4.4604,-1.3264,-9.8186,-0.2579,3.4216,-0.1633
4.6232,-1.4126,-9.7061,-0.2641,2.9644,-0.1564
4.4796,-1.3216,-9.7875,-0.2971,2.546,-0.1716
4.209,-1.324,-9.572,-0.3451,2.1543,-0.1871
3.5745,-1.1971,-9.9288,-0.3453,1.8524,-0.1609
2.7414,-0.9792,-10.0461,-0.2827,1.6073,-0.1138
2.3367,-0.7542,-9.7683,-0.2204,1.4493,-0.101
2.3463,-0.7973,-9.651,-0.1876,1.4376,-0.0973
2.0686,-1.0487,-9.4068,-0.2086,1.53,-0.029
2.1979,-0.9505,-9.5529,-0.2241,1.5359,-0.0512
2.7845,-0.9098,-9.6223,-0.2657,1.6036,-0.0405
3.1939,-0.8212,-9.8833,-0.2979,1.6715,-0.0179
3.9504,-0.7039,-10.0293,-0.2769,1.6643,-0.0152
4.3886,-0.656,-10.1083,-0.2356,1.6036,0.0013
4.9273,-0.5722,-10.1035,-0.2068,1.445,-0.0149
5.2265,-0.5746,-10.1418,-0.1649,1.2732,-0.0546
5.1236,-0.6105,-10.4339,-0.1223,1.0304,-0.065
4.9201,-0.5938,-10.659,-0.0837,0.7578,-0.0717
4.4772,-0.5698,-10.5848,-0.0549,0.4943,-0.081
3.9887,-0.6321,-10.4866,-0.0394,0.247,-0.0773
3.4093,-0.5866,-10.3693,-0.037,0.0325,-0.0802
3.1651,-0.5914,-10.4579,-0.0397,-0.0879,-0.0794
2.9425,-0.4908,-10.5273,-0.0176,-0.0965,-0.0802
2.9161,-0.565,-10.4627,-0.0008,-0.069,-0.0645
3.0478,-0.7063,-10.343,0.0024,-0.0155,-0.0501
3.304,-0.8835,-10.2113,-0.0141,0.0213,-0.0336
3.5602,-0.9625,-10.2951,-0.0354,0.0528,-0.0368
3.6488,-0.9433,-10.173,-0.0437,0.0506,-0.0477
3.8283,-0.8739,-10.0389,-0.0338,0.0392,-0.056
3.9409,-0.8739,-9.9599,-0.0258,0.016,-0.0663
4.1587,-0.917,-9.9575,-0.0301,-0.0504,-0.0746
4.3814,-0.9242,-10.058,-0.0349,-0.1367,-0.0842
4.4029,-0.9816,-10.0197,-0.0368,-0.2489,-0.0765
4.3766,-0.9649,-10.0676,-0.033,-0.3837,-0.0586
4.1803,-0.9242,-10.1849,-0.032,-0.4975,-0.0474
3.8978,-0.8332,-10.2951,-0.0352,-0.582,-0.0352
3.5291,-0.7925,-10.3477,-0.0354,-0.6374,-0.0232
3.2394,-0.7997,-10.4938,-0.0221,-0.6435,-0.012
3.0598,-0.7949,-10.5465,-0.0147,-0.6187,-0.0027
2.9353,-0.7853,-10.7188,-0.0077,-0.5633,0.0019
2.8299,-0.8308,-10.6542,-0.0003,-0.5087,0.0099
2.7509,-0.814,-10.568,0.0075,-0.4447,0.0069
2.7821,-0.8308,-10.5369,0.0189,-0.3829,0.0005
2.8491,-0.8475,-10.4914,0.0266,-0.3206,0.0008
2.8778,-0.838,-10.41,0.029,-0.2699,0.0035
3.0574,-0.917,-10.2975,0.036,-0.2409,0.0101
3.1532,-0.9553,-10.3262,0.025,-0.2377,0.0139
3.3447,-0.9433,-10.1658,0.0117,-0.2769,0.0176
3.5841,-1.008,-10.149,0.0077,-0.332,0.0242
3.6583,-0.996,-10.0269,0.0059,-0.4234,0.029
3.6607,-1.0223,-9.9671,-0.0053,-0.5367,0.0378
3.565,-1.1109,-10.0485,-0.0168,-0.664,0.0458
3.4022,-1.0247,-10.0533,-0.024,-0.7962,0.0458
3.2633,-0.929,-10.0054,-0.0264,-0.9092,0.045
3.0694,-0.8882,-10.0556,-0.029,-0.9854,0.0408
2.8347,-0.8691,-10.149,-0.029,-1.0528,0.0333
2.6264,-0.8835,-10.228,-0.0269,-1.1085,0.0373
2.4373,-0.8308,-10.252,-0.0197,-1.1501,0.0386
2.2936,-0.7829,-10.3262,-0.0176,-1.1575,0.0266
2.1261,-0.7422,-10.4507,-0.0157,-1.1418,0.0141
2.0016,-0.735,-10.4507,-0.0021,-1.1223,0.0163
1.9609,-0.7781,-10.4267,0.0144,-1.0957,0.0171
1.9417,-0.7709,-10.3334,0.0224,-1.0557,0.012
2.0207,-0.8068,-10.3238,0.0322,-1.0198,0.0083
2.0135,-0.8667,-10.2544,0.0258,-1.0051,0.0067
2.071,-0.917,-10.3142,0.0171,-1.0104,0.0083
2.0949,-0.9266,-10.2544,0.0075,-1.0363,0.0024
2.1907,-0.9744,-10.2137,-0.0064,-1.1122,-0.0107
2.1524,-0.9864,-10.2352,-0.0203,-1.2028,-0.0008
2.241,-0.9529,-10.2807,-0.0432,-1.3193,0.0027
2.1261,-0.838,-10.2639,-0.0568,-1.4242,0.0029
1.9561,-0.8045,-10.2592,-0.0634,-1.5159,-0.0043
1.6448,-0.7661,-10.2663,-0.0336,-1.5844,-0.0069
1.2809,-0.6608,-10.1299,0.0019,-1.6265,-0.0088
1.0965,-0.7733,-9.9886,0.0213,-1.6494,-0.0176
1.0463,-0.8212,-9.9431,0.0418,-1.6294,-0.0173
1.0415,-0.8547,-9.9072,0.0421,-1.5812,-0.0216
0.9744,-0.8978,-9.8426,0.0309,-1.4935,-0.0256
0.6656,-0.9026,-9.8617,0.0256,-1.4056,-0.0261
0.486,-0.929,-9.7683,0.0189,-1.307,-0.0141
0.4693,-0.9098,-9.8019,0.0245,-1.2121,-0.0189
0.5004,-0.8787,-9.9359,0.0306,-1.1274,-0.0301
0.6273,-0.9529,-9.991,0.0011,-1.089,-0.0357
0.7159,-1.0606,-10.0652,-0.0133,-1.0741,-0.0362
0.8811,-1.0319,-10.0437,-0.0115,-1.0917,-0.0392
1.0223,-0.984,-10.0676,-0.0176,-1.0914,-0.0368
0.9553,-1.0271,-10.3142,-0.0152,-1.0877,-0.053
0.747,-0.8739,-10.3717,0.0091,-1.1191,-0.0522
0.5459,-0.8882,-10.386,0.0005,-1.1628,-0.036
0.4286,-0.8523,-10.5441,0.0013,-1.2313,-0.0442
0.4357,-0.8428,-10.5249,0.0069,-1.2769,-0.0645
0.3879,-0.8739,-10.6111,0.0221,-1.2939,-0.0754
0.3376,-0.8308,-10.6279,0.0282,-1.2982,-0.0765
0.3759,-0.8116,-10.5393,0.0394,-1.2838,-0.0805
0.5195,-0.8308,-10.5297,0.0501,-1.2324,-0.0717
0.4477,-0.9026,-10.5058,0.0759,-1.1639,-0.0528
0.3112,-0.8739,-10.6686,0.1164,-1.1183,-0.0368
0.4046,-0.9673,-10.5441,0.1279,-1.1397,-0.0296
0.5698,-1.0702,-10.4746,0.1266,-1.1762,-0.0432
0.7446,-1.1708,-10.2017,0.1061,-1.2247,-0.0549
0.7709,-1.1779,-10.1299,0.0919,-1.3121,-0.0501
0.7278,-1.1684,-10.1418,0.0831,-1.4306,-0.0413
0.5076,-1.154,-10.058,0.0831,-1.5351,-0.0322
0.2418,-1.0774,-10.0437,0.0959,-1.5929,-0.0248
-0.2322,-1.0702,-10.3022,0.1311,-1.6284,-0.0171
-0.419,-0.9313,-10.422,0.1426,-1.6966,0.0059
-0.4597,-0.996,-10.4675,0.1292,-1.6784,0.0045
-0.9146,-1.0726,-10.2807,0.1498,-1.5916,0.0077
-1.1612,-1.0151,-10.1682,0.1692,-1.5346,0.0253
-1.2833,-1.008,-10.3525,0.1697,-1.461,0.0245
-1.3695,-0.9577,-10.4962,0.1415,-1.3981,0.0362
-0.9313,-1.1372,-10.5321,0.1146,-1.3219,0.0445
-0.8547,-1.2689,-10.4579,0.1162,-1.2172,0.057
-1.0104,-1.1516,-10.1442,0.1362,-1.2033,0.041
-0.9266,-1.0439,-9.8713,0.0959,-1.2225,0.0458
-0.8452,-1.0439,-9.7731,0.0546,-1.2313,0.0424
-0.8092,-1.1756,-9.651,0.0325,-1.2015,0.0179
-0.8811,-1.1349,-9.7061,0.0522,-1.113,0.0123
-0.8978,-0.9888,-9.6774,0.0429,-1.0744,0.0272
-1.0798,-0.9242,-9.56,0.0013,-1.052,0.0293
-1.0534,-0.9361,-9.5074,-0.053,-1.1226,0.0216
-1.0104,-0.9505,-9.6582,-0.0807,-1.1972,0.0029
-1.0367,-0.9218,-9.7157,-0.0965,-1.2367,-0.0171
-1.2617,-0.8954,-9.5672,-0.0962,-1.2574,-0.0493
-1.5083,-0.9218,-9.4116,-0.1018,-1.2617,-0.0621
-1.8052,-0.9481,-9.4786,-0.0661,-1.2569,-0.0743
-2.3008,-0.7207,-9.6295,-0.0613,-1.2835,-0.0605
-2.2889,-0.7302,-9.6223,-0.0855,-1.2593,-0.0485
-2.4373,-0.7398,-9.7779,-0.0818,-1.1562,-0.0453
-2.4924,-0.6321,-9.8904,-0.0663,-1.0802,-0.0293
-2.1237,-0.7661,-9.742,-0.0469,-1.0179,0.0205
-1.7502,-0.8667,-9.56,0.0083,-0.9729,0.0578
-1.5802,-0.8619,-9.5002,0.06,-0.9896,0.0703
-1.494,-0.8691,-9.7324,0.0533,-1.0738,0.0272
-1.5036,-0.8954,-10.0509,0.0096,-1.157,-0.0322
-1.7047,-0.9792,-10.0676,-0.024,-1.2135,-0.0608
-1.9154,-1.0104,-10.0628,-0.0208,-1.2724,-0.0464
-2.0111,-0.9888,-10.2783,0.0069,-1.3446,-0.0346
-2.0806,-0.9625,-10.3573,0.048,-1.4053,-0.0362
-2.0662,-0.9457,-10.4004,0.0653,-1.4128,-0.0205
-2.1356,-0.9529,-10.1682,0.069,-1.4016,-0.0107
-2.3703,-1.0032,-9.9623,0.065,-1.433,-0.008
-2.6552,-0.9697,-10.0126,0.0629,-1.4909,-0.0112
-2.8276,-0.9529,-10.1323,0.0442,-1.554,-0.0163
-2.7318,-0.9864,-10.1682,0.0245,-1.5815,-0.0149
-2.8036,-0.9888,-10.2472,0.0035,-1.5852,-0.0163
-2.7605,-1.1181,-10.4435,-0.0131,-1.6022,-0.0365
-2.885,-1.0606,-10.3645,-0.0072,-1.595,-0.0256
-2.8443,-0.9864,-10.1323,-0.0179,-1.6164,-0.012
-2.7581,-0.9744,-10.0173,-0.0424,-1.6422,-0.0011
-2.6576,-1.1037,-10.0892,-0.0695,-1.7091,-0.016
-2.4301,-1.0558,-10.1825,-0.0525,-1.7722,-0.024
-2.3224,-1.0487,-10.3094,-0.049,-1.845,-0.0051
-2.4205,-1.0056,-10.1155,-0.0261,-1.9481,0.0035
-2.4756,-1.0558,-9.7013,0.016,-2.0467,0.0229
-2.6671,-1.008,-9.177,0.0709,-2.1381,0.028
-2.7869,-1.0008,-8.8011,0.1029,-2.2276,0.0365
-3.0598,-1.0558,-8.9615,0.113,-2.2335,0.056
-3.553,-0.9936,-9.1482,0.1095,-2.2431,0.0536
-3.8307,-1.0056,-9.1219,0.0839,-2.2767,0.0586
-3.9097,-0.9792,-9.0908,0.0517,-2.3217,0.0264
-3.7421,-1.0415,-9.0357,0.0224,-2.3547,0.02
-3.9456,-0.9577,-9.2727,-0.0024,-2.3675,0.0147
-3.869,-0.9768,-9.5577,-0.0501,-2.4184,0.0067
-3.8642,-0.8284,-9.8545,-0.0946,-2.4749,-0.0072
-3.8642,-0.8236,-9.7516,-0.1324,-2.5636,-0.0229
-4.2569,-0.7614,-9.4092,-0.1226,-2.7667,-0.0658
-3.8978,-0.9409,-8.9807,-0.0959,-3.0105,-0.06
-3.6488,-1.087,-8.9423,-0.0181,-3.1778,-0.0322
-3.8307,-0.9266,-8.928,0.0791,-3.2959,0.0112
-4.063,-0.7829,-8.7939,0.1311,-3.4272,0.0357
-4.276,-0.7661,-8.3534,0.129,-3.6191,0.0141
-4.0917,-0.7973,-7.8626,0.0903,-3.8421,-0.024
-4.1755,-1.0032,-7.592,0.077,-3.9812,-0.048
-5.0829,-0.996,-7.7764,0.1013,-4.1307,-0.0501
-5.296,-0.9218,-8.0086,0.0903,-4.3452,-0.0373
-5.3558,-0.8978,-8.0158,0.0698,-4.3964,-0.0091
-5.9161,-0.8787,-7.8626,0.0743,-4.3591,-0.0877
-6.1483,-0.9385,-7.5465,0.0826,-4.309,-0.1007
-6.8594,-1.0463,-7.2425,0.1239,-4.2863,-0.1228
-6.62,-1.1492,-6.7732,0.1647,-4.4073,-0.149
-6.1794,-1.2498,-6.3207,0.2036,-4.4161,-0.134
-6.3327,-1.2091,-6.2249,0.255,-4.4155,-0.1998
-6.5386,-1.1109,-6.1028,0.2481,-4.4763,-0.194
-6.4979,-0.9553,-5.6,0.2278,-4.5171,-0.1247
-6.6607,-0.759,-4.9895,0.2249,-4.5456,-0.2281
-6.6679,-0.6488,-4.1468,0.1684,-4.5664,-0.2438
-8.2552,-0.5794,-3.7876,0.1364,-4.5634,-0.2425
-9.0836,-0.7566,-3.9409,0.1108,-4.7092,-0.2563
-8.2528,-1.1875,-5.0278,0.1282,-4.6711,-0.2318
-6.9743,-1.5347,-5.9352,0.2409,-4.3457,-0.1466
-8.0565,-1.1708,-6.0908,0.328,-3.9354,-0.1151
-9.0214,-1.1995,-5.4492,0.3248,-3.8339,-0.2102
-9.0309,-1.2953,-5.2864,0.3381,-3.6623,-0.1924
-9.4786,-1.257,-5.7868,0.3565,-3.3809,-0.1804
-9.4858,-1.2617,-5.7221,0.3733,-3.0502,-0.1817
-9.6534,-1.2091,-5.3822,0.3762,-2.6452,-0.1681
-9.4332,-1.2522,-4.9273,0.3592,-2.27,-0.1031
-9.5074,-1.1492,-4.4484,0.356,-1.8972,-0.0586
-9.1554,-1.1756,-3.802,0.3397,-1.6001,-0.0613
-8.8609,-1.3695,-3.2178,0.3411,-1.3323,-0.0304
-8.5545,-1.2953,-3.1867,0.3408,-1.0666,0.0317
-8.497,-1.4557,-3.1508,0.3323,-0.8029,0.029
-8.8011,-1.312,-3.2968,0.3086,-0.6414,0.0397
-8.4491,-1.221,-3.1244,0.2526,-0.534,0.0498
-8.6957,-1.0989,-3.0933,0.1985,-0.4218,0.0397
-9.0836,-0.9984,-3.292,0.1431,-0.3541,0.0458
-9.0525,-0.9098,-3.4141,0.1098,-0.2212,0.0474
-9.1722,-1.075,-3.711,0.1194,-0.0373,0.0384
-8.9447,-1.0989,-4.0701,0.1543,0.1045,0.0416
-8.6048,-1.1229,-4.3048,0.1743,0.1847,0.0493
-8.3127,-1.0822,-4.0247,0.141,0.2022,0.0336
-7.4268,-1.3695,-3.1244,0.1127,0.1314,0.0085
-7.8745,-1.1325,-3.1675,0.0653,0.0189,0.0013
-7.9847,-0.9529,-3.0718,0.0218,-0.1516,0.0123
-8.0421,-0.8954,-2.9856,-0.0144,-0.2316,0.0056
-8.3342,-0.9601,-2.9401,-0.0067,-0.3227,-0.0043
-8.272,-1.0846,-3.2202,0.0325,-0.3914,0.0021
-8.272,-1.1396,-3.5362,0.0701,-0.4234,0.0141
-8.4994,-1.1923,-3.6081,0.0826,-0.4405,0.0131
-8.9807,-1.1851,-3.6176,0.0789,-0.4317,-0.0067
-9.3541,-1.1899,-3.6224,0.061,-0.3499,-0.0131
-9.8043,-1.1875,-3.7589,0.0589,-0.182,-0.012
-9.9,-1.257,-3.711,0.0799,0.0453,0.0037
-9.7205,-1.3048,-3.8259,0.1223,0.2971,0.0059
-9.2296,-1.494,-3.6583,0.1471,0.4975,0.0242
-8.6957,-1.5874,-3.3471,0.1423,0.619,0.0218
-8.4707,-1.6472,-3.1723,0.0986,0.6371,0.0144
-8.1379,-1.6831,-3.146,0.0506,0.5777,0.0152
-7.908,-1.5586,-3.0885,0.0144,0.5372,0.0101
-8.0709,-1.4006,-3.0742,-0.036,0.4373,0.0115
-7.9775,-1.245,-3.4022,-0.0679,0.2817,0.016
-7.8793,-1.1803,-3.711,-0.0698,0.1391,0.024
-8.0062,-1.1588,-3.9217,-0.0386,0.0205,0.0277
-8.3701,-1.1971,-3.9552,0.0045,-0.0821,0.0285
-8.7963,-1.2713,-3.8164,0.0314,-0.1292,0.0242
-9.0644,-1.3431,-3.8403,0.0453,-0.0981,0.0189
-9.3326,-1.47,-3.6919,0.0576,-0.0005,0.0218
-9.5122,-1.5131,-3.8355,0.0677,0.1207,0.0245
-9.5792,-1.5251,-3.8714,0.0578,0.2435,0.0269
-9.4475,-1.5107,-3.7469,0.0413,0.3693,0.02
-9.323,-1.4748,-3.5482,0.0384,0.4978,0.0125
-8.9447,-1.4676,-3.7278,0.0466,0.559,0.0245
-8.3318,-1.4533,-4.0079,0.0533,0.5921,0.0386
-7.9727,-1.4126,-3.8499,0.037,0.5654,0.0338
-7.8841,-1.3743,-3.6559,0.0053,0.4322,0.016
-7.8985,-1.3479,-3.9313,-0.0165,0.2566,0.0163
-8.0517,-1.2282,-4.2521,-0.0221,0.114,0.02
-8.3031,-1.2378,-4.3072,-0.016,0.0346,0.0173
-8.5808,-1.2498,-4.197,-0.0029,0.0005,0.0205
-8.8921,-1.3551,-4.1324,0.0139,0.0221,0.0093
-9.244,-1.3408,-3.984,0.0253,0.0983,0.0059
-9.5385,-1.3958,-3.9911,0.0226,0.2212,0.0043
-9.5217,-1.4198,-4.0031,0.0139,0.356,0.0
-9.3733,-1.4246,-3.8858,0.0029,0.5049,-0.0021
-9.2368,-1.4006,-3.9289,-0.0179,0.6126,-0.0075
-9.0237,-1.3958,-3.8355,-0.032,0.6691,-0.016
-8.7843,-1.3264,-3.9648,-0.0352,0.6939,-0.0248
-8.6718,-1.2857,-3.9169,-0.0368,0.6872,-0.0301
-8.7676,-1.2186,-3.8379,-0.0437,0.66,-0.0381
-8.7724,-1.1205,-3.8523,-0.0565,0.6251,-0.0429
-8.7915,-1.1109,-3.7804,-0.0504,0.6145,-0.0584
-8.7652,-1.0056,-3.5482,-0.0378,0.635,-0.0679
-8.916,-1.1779,-3.4069,-0.057,0.6939,-0.081
-9.2129,-1.2977,-3.4429,-0.0349,0.7842,-0.0962
-9.3565,-1.3072,-3.7038,-0.0123,0.8988,-0.1151
-9.3709,-1.4269,-4.1276,0.016,1.0621,-0.1356
-9.2273,-1.4581,-4.446,0.057,1.2457,-0.1364
-9.1866,-1.4724,-4.8052,0.0949,1.437,-0.1426
-9.3853,-1.5897,-5.0733,0.1156,1.5873,-0.1612
-8.9519,-1.5706,-5.2792,0.1124,1.6779,-0.1801
-8.5401,-1.731,-5.5952,0.1124,1.8125,-0.2065
-8.5808,-1.6257,-5.8179,0.1346,1.9412,-0.2094
-8.655,-1.5036,-5.8754,0.1364,2.051,-0.2073
-8.8562,-1.3384,-5.6216,0.1039,2.1869,-0.2145
-9.1004,-1.1061,-5.3654,0.0442,2.335,-0.2092
-9.3613,-1.3455,-5.1427,-0.0237,2.5269,-0.1969
-9.1506,-1.1971,-5.2433,-0.0266,2.7606,-0.1836
-9.1794,-1.4844,-5.3534,-0.045,3.1163,-0.1487
-9.0166,-1.6472,-5.43,0.0381,3.4731,-0.1498
-8.837,-1.5897,-5.7365,0.1516,3.8384,-0.1279
-8.6933,-1.5083,-6.0334,0.247,4.2032,-0.0826
-8.0206,-1.5299,-6.1004,0.2846,4.553,-0.0767
-7.6471,-1.7142,-6.1148,0.2867,4.9176,-0.0927
-7.5585,-1.8675,-6.2153,0.287,5.2445,-0.0666
-7.3574,-1.7765,-6.4811,0.2691,5.5056,-0.0674
-7.1539,-1.7071,-6.8043,0.2009,5.7758,-0.0941
-6.8522,-1.6616,-6.8522,0.1383,6.0631,-0.0951
-6.3614,-1.4796,-6.7804,0.0933,6.3154,-0.1146
-5.7509,-1.2641,-6.529,0.0306,6.5089,-0.1492
-5.8682,-1.482,-6.6367,-0.1196,6.7468,-0.1223
-4.7309,-1.3743,-6.6104,-0.1271,6.8891,-0.149
-4.4772,-1.8172,-6.7636,-0.1561,7.09,-0.1498
-3.7278,-1.8004,-6.28,-0.0456,7.2904,-0.1964
-3.2417,-1.6472,-6.7708,-0.0032,7.5305,-0.1671
-3.3136,-1.4796,-7.1419,-0.0474,7.6984,-0.1724
-3.0837,-2.0877,-7.4795,-0.1061,7.8028,-0.1311
-2.976,-1.822,-8.406,-0.0887,7.8385,0.0016
-2.6432,-1.5538,-9.1626,-0.1522,7.8188,0.0091
-2.162,-1.3192,-9.8138,-0.251,7.7125,-0.0616
-1.4485,-1.1708,-10.0006,-0.3246,7.5129,-0.1183
-0.8859,-1.3527,-9.9024,-0.2705,7.2995,-0.1468
-1.1708,-1.2426,-9.7683,-0.0632,7.1601,-0.1396
-1.075,-1.2665,-9.7085,-0.0312,6.7655,-0.0362
-0.6033,-1.4868,-10.5249,-0.1593,6.4388,0.0266
-0.5746,-1.1157,-11.4467,-0.307,6.1214,-0.0274
0.0886,-0.8787,-11.5377,-0.4325,5.709,-0.1444
1.3551,-1.3719,-11.5185,-0.3722,5.2877,-0.1783
2.1811,-1.8292,-11.4658,-0.1911,4.8976,-0.1423
2.6145,-2.0016,-11.3198,-0.0544,4.4155,-0.1034
2.399,-2.1141,-11.2719,-0.0416,3.8877,-0.129
1.5826,-2.4924,-10.2592,-0.0677,3.3779,-0.1519
0.9625,-2.1165,-8.4803,-0.0045,2.8695,-0.1524
0.4836,-1.3479,-9.6438,-0.0586,2.3955,-0.0898
-1.4102,-1.4724,-11.0708,-0.1951,2.2351,0.0424
-3.225,-1.6544,-9.7659,-0.1567,2.2796,0.089
-3.2034,-1.2378,-8.9854,-0.1324,2.4698,0.0131
-1.7789,-1.0175,-9.5313,-0.3027,2.7392,-0.1103
-0.8404,-1.1923,-10.1083,-0.4141,3.0798,-0.2148
-0.3591,-1.1732,-9.8785,-0.3691,3.2484,-0.2364
0.4166,-1.3671,-9.2416,-0.239,3.2095,-0.1692
1.0032,-1.415,-9.0333,-0.0775,3.1365,-0.1375
1.6831,-1.6257,-8.5928,-0.0317,3.0089,-0.1537
2.2673,-1.8004,-8.3199,-0.0946,2.885,-0.134
2.5786,-1.7406,-8.5401,-0.1732,2.7472,-0.1527
3.0358,-1.6735,-8.6287,-0.2451,2.5516,-0.1585
3.4333,-1.5754,-8.6526,-0.2803,2.3606,-0.1146
3.7397,-1.47,-8.6718,-0.2718,2.1384,-0.0882
3.8762,-1.4796,-8.5665,-0.2811,1.8855,-0.0799
3.9552,-1.4581,-8.4587,-0.292,1.5801,-0.0789
3.96,-1.3815,-8.5305,-0.2966,1.2921,-0.0791
3.7613,-1.2139,-8.4922,-0.2848,1.0429,-0.0706
3.6583,-1.0487,-8.7029,-0.2753,0.8748,-0.0426
3.1077,-0.8859,-9.0237,-0.2886,0.7631,-0.016
2.9951,-0.8164,-9.1171,-0.3128,0.6691,0.0024
3.0909,-0.6201,-9.4355,-0.3315,0.6574,0.0128
3.225,-0.4836,-9.5481,-0.3456,0.6853,0.0064
3.3495,-0.3855,-9.6606,-0.3192,0.7043,0.0005
3.5123,-0.2873,-9.7899,-0.2531,0.7128,0.0072
3.5099,-0.2801,-9.9168,-0.2022,0.7021,0.0288
3.6631,-0.3711,-9.7492,-0.1601,0.6789,0.0333
3.9193,-0.5219,-9.6414,-0.1138,0.6454,0.0245
4.1013,-0.6177,-9.6271,-0.0895,0.6182,0.029
4.4077,-0.723,-9.4643,-0.0757,0.5231,0.0213
4.4867,-0.7518,-9.4643,-0.073,0.4279,0.0589
4.4029,-0.6823,-9.4954,-0.0701,0.3134,0.0669
4.4843,-0.6656,-9.5002,-0.0733,0.1969,0.0648
4.4915,-0.7159,-9.6295,-0.0743,0.0655,0.0671
4.5083,-0.68,-9.7588,-0.0893,-0.0488,0.0815
4.3622,-0.644,-9.991,-0.0927,-0.1476,0.0834
4.0342,-0.6057,-10.1299,-0.0751,-0.2353,0.0831
3.6823,-0.5578,-10.2855,-0.0618,-0.3046,0.0685
3.5338,-0.5411,-10.3932,-0.0538,-0.3693,0.061
3.3351,-0.5794,-10.5848,-0.053,-0.4133,0.0597
3.2489,-0.4884,-10.6494,-0.0469,-0.4799,0.0405
3.2441,-0.5267,-10.6446,-0.0344,-0.5268,0.0333
3.1292,-0.4836,-10.6207,-0.0104,-0.5676,0.0211
3.1795,-0.5555,-10.556,0.0184,-0.5849,0.0123
3.1771,-0.668,-10.2304,0.0405,-0.5612,0.0035
3.1484,-0.7733,-10.1658,0.0557,-0.5121,-0.0021
3.1292,-0.8715,-9.9814,0.0453,-0.4943,0.008
3.2609,-0.814,-9.9072,0.0237,-0.4786,0.0147
3.3639,-0.8428,-9.8138,0.0011,-0.4858,0.0171
3.5075,-0.8547,-9.7492,-0.0157,-0.522,0.0144
3.6631,-0.8499,-9.6151,-0.0211,-0.5604,0.0133
3.6057,-0.8523,-9.7444,-0.0189,-0.5913,0.0165
3.4955,-0.8475,-9.7348,-0.0144,-0.6328,0.0248
3.4213,-0.8332,-9.8952,-0.0216,-0.6643,0.0314
3.2537,-0.7901,-10.0437,-0.0312,-0.7131,0.0344
3.1723,-0.7997,-10.1969,-0.0456,-0.7741,0.0373
3.1029,-0.735,-10.3621,-0.0528,-0.8359,0.0413
2.9401,-0.7015,-10.5082,-0.0533,-0.8918,0.0365
2.7892,-0.656,-10.671,-0.033,-0.9345,0.0344
2.6001,-0.6153,-10.7931,-0.0005,-0.971,0.0344
2.4229,-0.565,-10.7955,0.028,-1.0086,0.0344
2.229,-0.6943,-10.8481,0.0432,-1.0517,0.0341
2.1979,-0.668,-10.6829,0.0538,-1.1029,0.0357
2.3894,-0.7015,-10.5249,0.0632,-1.1319,0.0261
2.1835,-0.8164,-10.3334,0.0735,-1.1522,0.012
2.1356,-0.814,-10.3932,0.0895,-1.2148,0.02
2.083,-0.8811,-10.1754,0.0895,-1.2428,0.0298
2.0423,-0.8667,-10.173,0.0837,-1.2004,0.0203
1.6688,-0.8835,-10.2137,0.0695,-1.1303,0.0072
1.5131,-0.929,-10.173,0.0648,-1.0848,0.0091
1.4605,-0.9553,-10.2041,0.0576,-1.0389,0.0088
1.585,-0.9673,-10.2999,0.0432,-1.0056,-0.0035
1.6352,-0.9625,-10.3358,0.025,-0.9702,0.0056
1.549,-0.9242,-10.3358,0.0226,-0.9574,-0.0043
1.3647,-0.826,-10.4339,0.0506,-0.9598,-0.0136
1.2474,-0.8499,-10.4722,0.0791,-0.9601,-0.0152
1.0654,-0.8571,-10.4076,0.1069,-0.9491,-0.0163
0.9744,-0.893,-10.3837,0.1063,-0.9385,-0.0304
1.0367,-0.9433,-10.2496,0.0818,-0.9294,-0.0424
1.2402,-1.0343,-10.2568,0.0546,-0.9196,-0.0464
1.403,-1.0175,-10.4148,0.0402,-0.906,-0.0493
1.312,-1.0008,-10.4124,0.0293,-0.8871,-0.0544
1.142,-0.9984,-10.4627,0.0381,-0.9065,-0.0658
1.1061,-0.9577,-10.3142,0.0392,-0.9526,-0.0743
1.4054,-0.9792,-10.0844,0.0285,-0.9753,-0.0839
1.4246,-1.0439,-10.2448,0.0437,-0.963,-0.0973
1.1947,-1.0582,-10.4675,0.0669,-0.9707,-0.1021
0.9768,-1.0678,-10.2232,0.0861,-0.9843,-0.1013
0.8906,-1.063,-10.1011,0.0909,-1.0253,-0.1119
0.9266,-0.9744,-10.1155,0.0759,-1.1018,-0.138
1.2067,-0.9505,-10.1969,0.0341,-1.2249,-0.1692
1.4389,-0.9673,-10.1347,-0.0024,-1.3486,-0.1953
1.482,-1.0343,-10.2448,-0.0277,-1.5306,-0.1985
1.3886,-1.0127,-10.0533,-0.0125,-1.7261,-0.1817
1.1708,-0.8978,-10.1347,0.0099,-1.8682,-0.1668
0.9002,-0.893,-10.2544,0.0285,-2.0336,-0.1612
0.8428,-0.8547,-10.0652,0.057,-2.1551,-0.1452
0.6512,-0.8499,-10.1897,0.0765,-2.2572,-0.1271
0.3807,-0.9505,-9.991,0.1215,-2.3209,-0.1164
0.0886,-1.0582,-9.7348,0.1676,-2.3803,-0.0922
-0.2729,-0.893,-9.9742,0.206,-2.3928,-0.0999
-0.328,-0.8859,-9.9527,0.1671,-2.4118,-0.1077
-0.5459,-1.0127,-9.7971,0.114,-2.3465,-0.1148
-0.6009,-1.1013,-9.5816,0.097,-2.2689,-0.109
-0.7398,-1.2139,-9.7827,0.1146,-2.1514,-0.0653
-0.9122,-1.1516,-9.979,0.1436,-2.0616,-0.0261
-0.7877,-1.1349,-10.1778,0.1338,-1.962,-0.0237
-0.7087,-1.1971,-10.0796,0.1063,-1.8375,-0.0328
-0.8284,-1.2713,-10.0293,0.1127,-1.7944,-0.0344
-0.565,-1.1827,-10.0796,0.0957,-1.8045,-0.0424
-0.2251,-1.336,-10.0556,0.0669,-1.8002,-0.0528
0.0287,-1.3719,-10.3741,0.0592,-1.8437,-0.0594
0.0072,-1.3623,-10.173,0.0597,-1.886,-0.0469
-0.3041,-1.3431,-9.7492,0.0722,-1.9785,-0.0376
-0.5315,-1.3096,-9.7252,0.0925,-2.0915,-0.0274
-0.6416,-1.2234,-9.7827,0.1082,-2.2314,-0.0197
-0.7566,-1.1013,-9.8138,0.0946,-2.3662,-0.024
-0.8116,-1.1229,-9.6989,0.0853,-2.4776,-0.0394
-1.0487,-1.0654,-9.3541,0.0751,-2.5655,-0.0333
-1.47,-1.0894,-9.2584,0.0576,-2.6561,-0.0232
-1.7238,-1.2689,-9.0716,0.053,-2.6873,-0.0218
-2.1021,-0.9601,-9.3972,0.121,-2.6385,0.008
-2.4756,-1.0295,-9.6055,0.1053,-2.5799,0.0029
-2.6887,-1.1564,-9.4523,0.0706,-2.5157,-0.0187
-2.9736,-1.2905,-9.2488,0.0405,-2.4067,-0.0589
-3.3543,-1.3072,-9.1674,0.0155,-2.2908,-0.0701
-3.6368,-1.1612,-9.3446,-0.0104,-2.1757,-0.0773
-3.8092,-1.0965,-9.7396,-0.0501,-2.0608,-0.0338
-3.4836,-0.9146,-10.0149,-0.0682,-1.9412,-0.0123
-3.2848,-0.8954,-9.9024,-0.0679,-1.8045,0.0075
-3.0861,-0.9505,-9.7157,-0.0389,-1.7877,-0.0197
-2.976,-1.1708,-9.8258,0.0221,-1.7451,-0.044
-3.0095,-1.1779,-9.8234,0.0829,-1.703,-0.0725
-3.237,-1.2426,-9.7492,0.1124,-1.6153,-0.1031
-3.3136,-1.2737,-9.6391,0.1188,-1.5844,-0.1002
-3.2513,-1.2953,-9.7612,0.1119,-1.5561,-0.0701
-3.3495,-1.3048,-10.0293,0.1162,-1.5532,-0.0557
-3.3208,-1.3838,-10.0748,0.1124,-1.5892,-0.0573
-3.0981,-1.3336,-9.9958,0.0938,-1.5998,-0.0512
-3.1412,-1.1779,-9.9934,0.0378,-1.6401,-0.061
-3.225,-1.0989,-9.8043,-0.036,-1.7443,-0.0975
-3.2082,-1.0942,-9.7085,-0.0885,-1.8215,-0.1207
-3.3279,-1.1157,-9.8067,-0.073,-1.9063,-0.1284
-3.3375,-1.1779,-9.8785,-0.0232,-2.0081,-0.1079
-3.237,-1.1923,-9.8545,0.0418,-2.0933,-0.0799
-3.3974,-1.0774,-9.754,0.0959,-2.1693,-0.0757
-3.6607,-0.9242,-9.5912,0.1039,-2.2772,-0.064
-3.7421,-0.9601,-9.3853,0.0954,-2.4187,-0.0733
-3.5913,-1.0295,-9.1387,0.1042,-2.4778,-0.0653
-4.0127,-1.1325,-8.8322,0.1388,-2.4954,-0.0687
-4.5083,-1.1325,-8.5497,0.1655,-2.5671,-0.0658
-4.8985,-1.1444,-8.5138,0.1665,-2.6095,-0.0674
-5.0829,-1.1564,-8.5665,0.1519,-2.5911,-0.0464
-5.284,-1.1229,-8.6311,0.1292,-2.4674,-0.0432
-5.4277,-1.1684,-8.8059,0.1252,-2.3094,-0.0509
-5.4755,-1.1779,-8.8562,0.1279,-2.1434,-0.0517
-5.1858,-1.221,-8.7293,0.1327,-2.0019,-0.045
-5.2337,-1.3048,-8.7125,0.126,-1.8674,-0.0418
-5.3056,-1.3096,-8.8298,0.1447,-1.8506,-0.0221
-5.1523,-1.336,-8.7747,0.1447,-1.8612,-0.0322
-5.2002,-1.3264,-8.7987,0.1495,-1.8157,-0.0408
-5.1858,-1.2929,-8.7436,0.1508,-1.7949,-0.0277
-5.3606,-1.2186,-8.6311,0.1474,-1.8002,-0.0069
-5.2553,-1.2019,-8.3677,0.1303,-1.8668,-0.0165
-5.0589,-1.2474,-8.1283,0.1069,-1.9127,-0.0352
-4.9895,-1.221,-7.932,0.0807,-1.9833,-0.057
-4.956,-1.3743,-7.853,0.0703,-1.9982,-0.0314
-5.3343,-1.3336,-7.7764,0.0922,-2.0086,0.0072
-5.5905,-1.2617,-7.7644,0.1066,-2.0715,-0.0019
-5.4492,-1.3408,-7.8578,0.1034,-2.1122,0.028
-5.6575,-1.2905,-7.9464,0.0991,-2.1035,0.048
-5.8131,-1.2091,-7.8769,0.0954,-2.0875,0.0314
-6.1579,-1.1947,-7.7333,0.0981,-2.0691,-0.0059
-6.4212,-1.1803,-7.5274,0.0951,-2.0749,-0.0131
-6.3422,-1.2067,-7.4077,0.0911,-2.1019,0.0008
-6.098,-1.1995,-7.2927,0.0829,-2.1053,-0.0376
-5.8227,-1.3048,-7.0437,0.0727,-2.1352,-0.069
-5.8826,-1.415,-7.0485,0.0666,-2.1344,-0.0117
-6.1292,-1.3024,-6.9791,0.0663,-2.2282,0.0037
-5.9664,-1.1181,-6.7493,0.0727,-2.3638,-0.0666
-6.043,-1.0894,-6.6319,0.0498,-2.465,-0.0687
-6.1435,-1.1133,-6.7133,0.0488,-2.5309,-0.0506
-6.596,-0.9481,-6.7109,0.0861,-2.5679,-0.0671
-6.9216,-0.905,-6.5649,0.1002,-2.6334,-0.0584
-7.1012,-1.0534,-6.1794,0.1287,-2.6377,-0.0224
-7.331,-1.1013,-5.9352,0.1831,-2.5932,-0.0397
-7.5753,-1.2139,-5.9328,0.2268,-2.5261,-0.0581
-7.6614,-1.4509,-5.9664,0.2462,-2.4507,-0.0224
-7.9128,-1.5012,-5.9759,0.2595,-2.3665,-0.0083
-7.932,-1.5682,-6.2465,0.2454,-2.2759,0.0115
-7.7907,-1.6472,-6.4021,0.2148,-2.1922,0.0165
-7.4962,-1.6233,-6.3327,0.1719,-2.0688,-0.0021
-7.6758,-1.5826,-5.9951,0.1162,-1.9566,-0.0333
-7.5705,-1.4844,-5.4803,0.0485,-1.9582,-0.044
-7.6662,-1.5131,-5.2553,0.0173,-1.9271,-0.037
-7.7716,-1.4126,-5.3367,0.029,-1.9169,-0.0296
-7.9009,-1.3982,-5.4708,0.0552,-1.8357,0.0232
-8.0038,-1.3048,-5.3654,0.1071,-1.7637,0.0304
-7.9727,-1.1995,-5.138,0.1474,-1.6771,0.012
-8.0709,-1.1516,-4.9967,0.1711,-1.5868,0.0003
-8.4132,-1.2019,-5.1092,0.1831,-1.5092,-0.0445
-8.1954,-1.336,-5.0877,0.1729,-1.4218,0.0011
-8.3965,-1.4509,-4.9991,0.1863,-1.3195,0.0115
-8.339,-1.5107,-4.8004,0.1919,-1.2516,0.0258
-8.2432,-1.4772,-4.4508,0.1903,-1.161,0.0152
-8.4467,-1.4198,-4.3144,0.1799,-1.0709,-0.0181
-8.6143,-1.3455,-4.4245,0.1439,-1.0467,-0.0181
-8.4635,-1.3551,-4.5705,0.097,-1.012,-0.0109
-8.2073,-1.4246,-4.5035,0.0397,-0.9502,-0.0003
-7.9416,-1.4772,-4.4532,0.0133,-0.8974,-0.0112
-8.2456,-1.3384,-4.3024,0.0602,-0.8657,-0.0117
-8.4276,-1.2929,-4.47,0.0938,-0.9033,-0.0112
-8.5186,-1.2498,-4.6567,0.0959,-0.9129,-0.0168
-8.0685,-1.3048,-4.2976,0.0738,-0.8711,-0.0141
-8.3558,-1.4437,-3.9361,0.0781,-0.8388,-0.0506
-8.8178,-1.3431,-4.2114,0.1204,-0.8359,-0.0394
-8.5784,-1.3024,-4.8411,0.1466,-0.789,0.0032
-8.5258,-1.2617,-4.8554,0.1482,-0.6981,0.0272
-8.6455,-1.2594,-4.2425,0.1258,-0.6784,0.0115
-8.7149,-1.2761,-3.6464,0.1143,-0.6899,-0.0115
-8.6718,-1.3767,-3.565,0.1279,-0.6893,-0.0069
-8.8131,-1.4389,-3.6176,0.1495,-0.6121,0.0088
-8.9519,-1.4222,-3.6081,0.1468,-0.5153,-0.0005
-9.0453,-1.4509,-3.5817,0.1138,-0.3914,-0.0096
-8.9663,-1.4413,-3.6392,0.0858,-0.2601,-0.0056
-8.9663,-1.4246,-3.6775,0.0717,-0.1394,0.0043
-8.9064,-1.5395,-3.7397,0.0767,-0.0274,0.0099
-8.9399,-1.4916,-3.8427,0.1042,0.0695,0.0032
-8.4324,-1.6688,-3.3112,0.1383,0.1271,-0.0642
-8.43,-1.7597,-3.4907,0.0935,0.1977,0.0453
-8.3725,-1.6472,-3.7421,0.0634,0.2313,0.0442
-8.1163,-1.6161,-4.1563,0.0184,0.2507,0.0234
-8.0709,-1.4988,-4.1228,0.0003,0.2675,0.0242
-8.0972,-1.4102,-4.0797,0.0091,0.2342,0.0322
-8.2025,-1.324,-4.2234,0.0322,0.1956,0.0453
-8.2648,-1.2977,-4.2497,0.0653,0.1825,0.0514
-8.4443,-1.3886,-4.1037,0.0938,0.199,0.0525
-8.6239,-1.4892,-3.8882,0.1026,0.1879,0.0163
-8.3438,-1.5945,-3.9935,0.0858,0.1961,0.0698
-8.406,-1.6448,-3.9935,0.0578,0.2145,0.0608
-8.4013,-1.5514,-3.7948,0.0344,0.2337,0.0328
-8.5473,-1.494,-3.5793,0.0099,0.2276,0.0147
-8.4036,-1.4844,-3.7517,0.0096,0.1964,0.0165
-8.2049,-1.391,-3.96,0.0181,0.1961,0.0256
-8.2145,-1.4222,-4.0869,0.0285,0.1823,0.0155
-7.8434,-1.47,-4.209,0.0288,0.1103,0.0117
-7.5968,-1.5395,-4.6064,0.0197,0.0461,0.0085
-7.7644,-1.4605,-4.719,0.0083,-0.045,-0.0027
-8.0876,-1.4269,-4.391,-0.0077,-0.1274,-0.0184
-8.3725,-1.3862,-4.13,-0.0141,-0.1849,-0.0317
-8.5808,-1.3743,-4.1252,-0.0027,-0.2012,-0.0232
-8.7005,-1.3527,-4.391,0.0208,-0.1617,-0.0061
-8.667,-1.4293,-4.4532,0.0357,-0.0837,0.0005
-8.6862,-1.4844,-4.3838,0.0376,-0.0077,-0.0067
-8.6143,-1.5371,-4.2449,0.0349,0.0394,-0.0104
-8.7029,-1.5419,-4.1779,0.0322,0.0981,-0.0139
-8.7652,-1.5395,-4.1156,0.0322,0.1508,-0.0218
-8.8298,-1.5131,-4.0318,0.0266,0.2169,-0.0189
-8.8562,-1.5083,-4.0414,0.0213,0.2726,-0.0155
-8.6,-1.5921,-4.1228,0.0195,0.2992,-0.0131
-8.3366,-1.5874,-4.2401,0.0189,0.3214,-0.0117
-8.169,-1.5371,-4.2473,0.0144,0.3144,-0.0187
-8.1451,-1.5251,-4.2234,0.0083,0.2681,-0.0322
-8.1666,-1.4724,-4.1922,0.0024,0.2057,-0.0434
-8.2911,-1.4078,-4.1396,0.0027,0.1463,-0.0525
-8.4563,-1.4222,-4.1061,0.0112,0.1053,-0.0629
-8.4827,-1.3862,-4.0869,0.0179,0.0917,-0.0717
-8.5856,-1.4437,-4.0342,0.0226,0.0989,-0.0778
-8.6718,-1.4581,-4.0199,0.0125,0.1116,-0.0842
-8.7604,-1.4964,-4.0558,0.0016,0.1327,-0.093
-8.8322,-1.4198,-4.1659,-0.0093,0.1708,-0.1029
-8.9064,-1.4868,-4.1563,-0.0203,0.2169,-0.1151
-8.825,-1.5586,-4.142,-0.0091,0.2763,-0.1202
-8.7556,-1.5586,-4.1444,-0.0005,0.3672,-0.1316
-8.8394,-1.5993,-4.2377,0.0163,0.4559,-0.133
-8.8681,-1.5993,-4.3167,0.032,0.5409,-0.1348
-8.8059,-1.5203,-4.5107,0.0362,0.6326,-0.1332
-8.7963,-1.6185,-4.6615,0.0147,0.7155,-0.1383
-8.691,-1.6209,-4.8267,0.0176,0.7882,-0.1391
-8.5712,-1.5419,-4.9273,0.0232,0.8681,-0.1434
-8.6574,-1.4174,-5.0709,0.0176,0.9569,-0.1364
-8.7005,-1.5083,-5.2529,0.0045,1.0464,-0.134
-8.6431,-1.5012,-5.3654,0.024,1.1676,-0.1188
-8.7747,-1.5036,-5.3654,0.0469,1.3382,-0.1186
-8.8897,-1.561,-5.3247,0.109,1.5372,-0.0962
-8.9399,-1.4174,-5.3079,0.1596,1.7693,-0.0754
-9.0429,-1.4246,-5.2313,0.1751,2.0606,-0.0541
-9.1315,-1.4988,-5.3367,0.1708,2.4128,-0.0168
-9.4355,-1.7238,-5.4133,0.2004,2.7773,0.0163
-9.1961,-1.6376,-5.6144,0.2523,3.1589,0.016
-8.9759,-1.6233,-5.8419,0.2654,3.5618,0.012
-8.7676,-1.7047,-5.7341,0.2595,3.9716,0.0203
-8.8011,-1.6616,-5.6479,0.2403,4.3609,0.0352
-8.7149,-1.6903,-5.703,0.2076,4.7342,0.0245
-8.4515,-1.7406,-5.8754,0.1689,5.0846,0.0083
-8.1762,-1.7669,-6.1387,0.1524,5.4678,0.0131
-7.9966,-1.6496,-6.1603,0.137,5.7996,-0.0168
-7.3574,-1.7023,-6.0406,0.1226,6.1526,-0.053
-7.6016,-1.7813,-5.7988,0.1263,6.5203,-0.048
-7.5298,-1.7909,-5.7245,0.1124,6.7665,-0.0735
-7.1563,-1.7885,-5.6479,0.0733,7.0082,-0.126
-6.6176,-1.8435,-5.6551,0.0133,7.2456,-0.1815
-5.7844,-1.8268,-5.7604,-0.0831,7.466,-0.2316
-5.0326,-1.9872,-5.6838,-0.2062,7.6368,-0.2995
-4.4748,-2.0303,-5.7844,-0.2726,7.7663,-0.2785
-3.8283,-1.9154,-6.347,-0.3094,7.8678,-0.2364
-3.3327,-1.6831,-6.7086,-0.3672,7.9241,-0.235
-2.9185,-1.5514,-7.3167,-0.4231,7.8721,-0.2563
-2.2051,-1.3647,-8.2744,-0.4842,7.7226,-0.2473
-1.6879,-1.3958,-9.2296,-0.5332,7.5577,-0.2196
-1.1372,-1.2522,-9.9048,-0.5241,7.3328,-0.2094
-0.7733,-1.403,-10.0916,-0.4333,7.0453,-0.2174
-0.644,-1.3791,-10.0221,-0.2766,6.6869,-0.2158
-0.5842,-1.0534,-11.0325,-0.1404,6.3266,-0.2388
-1.3479,-0.8978,-12.2655,-0.1343,5.9216,-0.1577
-1.336,-1.0247,-12.2679,-0.2358,5.4681,-0.0687
-1.8435,-1.0822,-11.5305,-0.2033,5.0958,-0.1556
-1.6616,-1.1013,-11.88,-0.0378,4.7745,-0.2673
-0.9529,-1.7166,-12.0476,0.0621,4.6612,-0.3208
-0.4693,-2.32,-11.7723,0.1644,4.6455,-0.2774
-0.4381,-2.7701,-11.1498,0.186,4.5213,-0.2681
-0.4262,-3.4453,-9.2033,0.1199,4.253,-0.2883
-0.5435,-3.2777,-8.1235,0.0226,3.8648,-0.3858
0.1532,-2.5905,-7.5872,-0.1633,3.5064,-0.401
0.7781,-1.6568,-9.6965,-0.4162,3.3606,-0.2172
-0.6057,-1.8747,-10.5297,-0.437,3.5042,-0.129
-1.5802,-1.9297,-9.2153,-0.1492,3.5589,-0.1356
-0.2011,-1.585,-8.1858,-0.0285,3.4547,-0.1476
1.8004,-1.6831,-8.1834,-0.1743,3.3348,-0.1916
2.5809,-1.8387,-8.4276,-0.2931,3.2042,-0.2358
2.4924,-1.968,-8.2456,-0.2494,2.9806,-0.2193
2.3655,-1.719,-8.2408,-0.1356,2.7531,-0.1833
2.0446,-1.6592,-8.0062,-0.105,2.5943,-0.142
2.1045,-1.7717,-7.683,-0.1631,2.5042,-0.1018
2.0853,-1.719,-7.6231,-0.2457,2.4789,-0.0759
2.4181,-1.6496,-7.7835,-0.3547,2.4504,-0.1207
3.0023,-1.7526,-7.9823,-0.4098,2.3883,-0.1127
3.6559,-1.5945,-8.351,-0.4274,2.2977,-0.069
4.2329,-1.4653,-8.7053,-0.4431,2.1466,-0.0282
4.8219,-1.2378,-9.1818,-0.4495,1.9422,-0.0008
4.8674,-1.0008,-9.5505,-0.4511,1.7267,0.0269
4.604,-0.7733,-9.7779,-0.4421,1.4693,0.0344
4.4436,-0.6009,-10.1107,-0.4104,1.1842,0.0232
4.2377,-0.5124,-10.3118,-0.3323,0.9553,0.0157
4.0247,-0.407,-10.2783,-0.2465,0.7357,0.0197
3.9768,-0.431,-10.1993,-0.1847,0.5348,0.0157
3.9145,-0.5674,-10.1634,-0.138,0.364,0.0131
3.723,-0.6464,-10.1801,-0.1063,0.2196,0.0211
3.5075,-0.7638,-9.9216,-0.0765,0.0957,0.0378
3.6392,-0.7207,-9.9407,-0.0474,0.0301,0.0384
3.1101,-0.7542,-9.7875,-0.0488,0.0786,0.0592
3.4764,-0.668,-9.8713,-0.0352,0.0464,0.0562
3.4333,-0.6991,-9.8593,-0.0171,0.1306,0.0687
3.4692,-0.7566,-10.0006,-0.0051,0.1788,0.0839
3.5985,-0.8308,-10.0604,-0.0123,0.194,0.0509
3.5099,-0.8978,-10.1993,-0.004,0.2025,0.04
3.4333,-0.9098,-10.2232,0.0037,0.1657,0.0261
3.3423,-0.8571,-10.1801,0.0072,0.1276,0.0072
3.3471,-0.7925,-10.2472,0.0091,0.0794,-0.0131
3.3495,-0.7685,-10.2256,0.0008,0.012,-0.0264
3.3854,-0.7877,-10.2304,-0.0053,-0.0879,-0.0365
3.3974,-0.747,-10.1275,-0.0072,-0.1988,-0.0453
3.2585,-0.7973,-10.0197,0.0003,-0.3096,-0.048
3.2058,-0.8715,-9.8426,-0.0093,-0.413,-0.044
3.1412,-0.9266,-9.8857,-0.0181,-0.4703,-0.0413
3.0478,-0.9625,-10.0078,-0.0349,-0.5089,-0.0432
2.9784,-0.9912,-10.0676,-0.0496,-0.5015,-0.0464
2.8994,-0.9768,-10.0556,-0.0453,-0.4612,-0.0432
2.9137,-0.9697,-10.2448,-0.0266,-0.3978,-0.0376
2.7869,-1.0247,-10.2927,-0.0203,-0.312,-0.016
2.7701,-1.0104,-10.2568,-0.0104,-0.2561,-0.0141
2.6312,-1.0702,-10.3238,-0.0008,-0.1458,-0.0101
2.5929,-1.1181,-10.3573,0.0059,-0.0549,-0.0171
2.715,-1.1588,-10.41,-0.0024,0.0258,-0.0184
2.8323,-1.1229,-10.3094,-0.0107,0.0831,-0.0179
2.9951,-1.075,-10.3262,-0.0229,0.0946,-0.0205
3.1939,-0.9673,-10.2472,-0.0224,0.0754,-0.0173
3.1508,-0.9601,-10.3358,-0.0157,0.0432,-0.0165
3.1771,-0.9529,-10.1538,-0.0077,-0.0245,-0.0165
3.2681,-0.9553,-10.1275,-0.0059,-0.1015,-0.0189
3.3136,-1.008,-10.1945,-0.0067,-0.1879,-0.0288
3.3519,-1.0774,-10.1873,-0.0093,-0.2872,-0.0232
3.3926,-1.0511,-10.0533,-0.0107,-0.409,-0.0075
3.474,-1.0606,-9.9024,-0.0136,-0.5223,0.0008
3.5889,-1.0415,-9.7995,-0.0181,-0.636,0.0053
3.5147,-0.9768,-9.7444,-0.0232,-0.753,0.0136
3.3327,-0.9409,-9.7659,-0.0224,-0.8631,0.0237
3.1651,-0.8499,-9.7707,-0.0147,-0.9489,0.0224
2.8994,-0.8188,-9.8162,-0.0053,-0.9942,0.0218
2.6839,-0.7805,-9.9096,0.0016,-1.0243,0.0221
2.5786,-0.8428,-10.0317,0.0005,-1.0208,0.0221
2.387,-0.7422,-10.1849,-0.0005,-1.0059,0.0171
2.3152,-0.7518,-10.2137,0.0027,-1.0038,0.0216
2.2913,-0.8068,-10.2687,0.0157,-1.0075,0.025
2.1691,-0.8547,-10.3741,0.0336,-1.0315,0.0211
2.3176,-0.9337,-10.3022,0.0448,-1.0658,0.0184
2.3176,-0.984,-10.1945,0.04,-1.0984,0.0059
2.3104,-1.0415,-10.1634,0.0349,-1.1487,0.0005
2.2745,-1.1277,-10.0916,0.0298,-1.2023,0.0064
2.1021,-1.154,-10.0485,0.0112,-1.2806,0.0069
2.0662,-1.2115,-10.0245,-0.0061,-1.3941,0.0109
1.9393,-1.2522,-10.0652,-0.0384,-1.502,-0.008
1.822,-1.2043,-10.1275,-0.0821,-1.6073,-0.0117
1.7119,-1.0942,-10.149,-0.1335,-1.7182,0.0
1.64,-0.917,-10.2544,-0.1583,-1.8095,0.0005
1.4772,-0.7733,-10.3094,-0.1447,-1.8626,-0.0051
1.3048,-0.7422,-10.1945,-0.1069,-1.9505,0.0067
1.585,-0.8571,-9.9024,-0.0749,-2.072,0.0256
2.0901,-0.9864,-9.8378,-0.048,-2.1498,0.0322
2.3631,-1.0918,-9.8354,-0.0394,-2.1714,0.0213
2.2218,-1.2258,-9.8114,-0.0482,-2.189,0.0216
1.8483,-1.2498,-9.8617,-0.0493,-2.2652,0.0618
1.7286,-1.1372,-10.1586,-0.0512,-2.3697,0.0997
1.2282,-1.1205,-10.3214,-0.0616,-2.4773,0.1015
1.1109,-1.0606,-10.489,-0.0671,-2.6446,0.1005
1.2522,-0.9242,-10.5896,-0.0618,-2.7677,0.1146
1.087,-0.7614,-10.5105,-0.0264,-2.8128,0.1295
0.6536,-0.7159,-10.6039,0.0472,-2.8301,0.129
0.0024,-0.6201,-10.7955,0.118,-2.8349,0.1164
-0.3687,-0.6943,-10.6853,0.1511,-2.8397,0.1111
-0.4477,-0.7518,-10.5105,0.2086,-2.7811,0.113
-0.5626,-0.9553,-10.4555,0.2356,-2.6684,0.1601
-0.9529,-0.9361,-10.422,0.2475,-2.5687,0.1655
-1.1109,-0.9816,-10.2927,0.2297,-2.5607,0.1498
-0.8475,-1.0367,-9.821,0.1913,-2.5812,0.138
-0.7087,-1.1684,-9.8378,0.1732,-2.5343,0.1287
-0.8954,-1.1013,-10.1562,0.1444,-2.5357,0.1324
-1.1971,-1.0726,-9.5936,0.0797,-2.4864,0.1085
-1.5945,-1.0151,-9.2225,0.0554,-2.4296,0.0871
-1.8962,-0.9553,-9.1171,0.0648,-2.391,0.0775
-1.9201,-0.9122,-9.402,0.0717,-2.3145,0.0783
-2.1955,-0.905,-9.5074,0.0634,-2.2167,0.0802
-2.1955,-1.0391,-9.4332,0.0362,-2.1093,0.0671
-2.2146,-1.0104,-9.426,0.0226,-2.0153,0.0445
-1.9489,-1.0415,-9.596,0.0013,-1.8818,0.0304
-1.9369,-1.1636,-9.8928,-0.0024,-1.7467,0.0293
-1.9321,-1.2378,-9.979,0.0107,-1.5945,0.0413
-1.9776,-1.2019,-10.0341,0.0517,-1.4863,0.049
-1.992,-1.2426,-9.9551,0.0759,-1.4059,0.0349
-2.0566,-1.2641,-9.6534,0.0927,-1.3488,0.037
-2.1452,-1.2115,-9.6917,0.1108,-1.3496,0.048
-2.0087,-1.142,-9.9192,0.0845,-1.3984,0.0469
-2.0159,-1.1061,-10.2041,0.0514,-1.4352,0.02
-2.1284,-1.2498,-10.0509,0.04,-1.4581,-0.0208
-2.217,-1.2186,-9.9814,0.0522,-1.4938,-0.0229
-2.2218,-1.087,-9.9862,0.0538,-1.5657,-0.0181
-2.3535,-1.0822,-9.9335,0.0458,-1.6419,-0.0277
-2.5546,-0.9912,-9.6917,0.044,-1.6894,-0.0314
-2.9233,-0.9864,-9.6965,0.0469,-1.7248,-0.0408
-3.1795,-1.0534,-9.4571,0.0504,-1.7373,-0.0397
-3.4524,-1.1133,-9.2967,0.0709,-1.6883,-0.0602
-3.6512,-1.2354,-9.2584,0.0829,-1.57,-0.0605
-3.8834,-1.1588,-9.177,0.0869,-1.417,-0.0469
-3.9025,-0.9984,-9.1051,0.049,-1.3065,-0.0469
-3.5506,-1.0678,-9.5146,-0.0051,-1.2193,-0.0226
-3.4644,-1.166,-10.0533,-0.0152,-1.1245,-0.0096
-3.2825,-1.2617,-10.2687,0.0093,-1.1008,-0.0272
-2.9904,-1.3312,-10.0916,0.0472,-1.1151,-0.0408
-2.9449,-1.4437,-9.9695,0.0826,-1.1391,-0.0608
-3.0718,-1.4078,-9.7205,0.1122,-1.2236,-0.0695
-3.1412,-1.3647,-9.8019,0.1308,-1.2929,-0.057
-3.3279,-1.2115,-10.0868,0.1338,-1.3544,-0.0568
-3.383,-1.2043,-10.0149,0.1172,-1.4464,-0.056
-3.2561,-1.2761,-9.6798,0.1034,-1.5223,-0.0445
-3.5099,-1.3192,-9.5577,0.11,-1.5977,-0.0469
-3.6847,-1.2737,-9.5002,0.1124,-1.6923,-0.0506
-3.7661,-1.2833,-9.3733,0.1015,-1.7205,-0.0586
-3.8858,-1.3024,-9.3063,0.0925,-1.7269,-0.0685
-3.9409,-1.2546,-9.3877,0.0842,-1.7349,-0.0685
-3.7637,-1.1995,-9.4643,0.0786,-1.7312,-0.0554
-4.0677,-1.1875,-9.4523,0.0919,-1.7163,-0.0533
-4.3694,-1.1779,-9.2608,0.109,-1.7488,-0.0701
-4.391,-1.2258,-9.1626,0.1143,-1.7901,-0.0698
-4.3263,-1.1468,-9.2392,0.1218,-1.7912,-0.0749
-4.2545,-1.1229,-9.0692,0.1061,-1.7509,-0.0893
-4.2569,-1.2522,-8.8107,0.1013,-1.7064,-0.0903
-4.2186,-1.245,-8.9639,0.1572,-1.7197,-0.0791
-4.4101,-1.2186,-9.1889,0.1788,-1.8175,-0.0546
-4.3239,-1.3001,-8.8849,0.1839,-1.9321,-0.0474
-4.2282,-1.2929,-8.4467,0.1924,-2.0427,-0.0826
-4.5059,-1.3743,-8.3486,0.1761,-2.1775,-0.0871
-4.7621,-1.3982,-8.4994,0.1599,-2.3148,-0.0762
-4.9321,-1.3192,-8.5856,0.1468,-2.3638,-0.0901
-5.2744,-1.2546,-8.4491,0.1183,-2.3577,-0.0989
-5.4851,-1.2067,-8.2001,0.0946,-2.3334,-0.0909
-5.3774,-1.1325,-8.0014,0.0911,-2.2988,-0.1053
-5.4229,-1.1708,-7.8961,0.1055,-2.169,-0.0807
-5.9664,-1.2354,-7.92,0.1452,-2.0861,-0.0943
-5.9975,-1.2617,-7.9847,0.1881,-2.0931,-0.1383
-5.7652,-1.3815,-8.0062,0.1932,-2.0475,-0.1386
-5.8419,-1.4269,-7.9703,0.2036,-1.9748,-0.1172
-5.9951,-1.4222,-7.908,0.1985,-1.9564,-0.1242
-5.8395,-1.4461,-7.8721,0.1849,-1.9233,-0.1508
-5.9879,-1.5251,-7.8817,0.1724,-1.9081,-0.1823
-6.0478,-1.4629,-7.8602,0.1399,-2.0067,-0.1687
-5.4971,-1.5802,-8.1187,0.0935,-2.1655,-0.1577
-5.1619,-1.4557,-7.9727,0.0898,-2.2191,-0.1727
-5.3151,-1.3384,-7.8243,0.0586,-2.2878,-0.2065
-5.5067,-1.3551,-7.6495,0.0389,-2.4134,-0.2273
-6.0501,-1.3743,-7.6471,0.0514,-2.5498,-0.2153
-6.1028,-1.245,-7.841,0.0794,-2.6998,-0.1937
-5.8419,-1.3934,-7.7668,0.1266,-2.715,-0.1601
-6.2944,-1.391,-7.5082,0.2033,-2.6827,-0.1519
-6.4524,-1.3815,-7.2137,0.2691,-2.7262,-0.1687
-6.5362,-1.4844,-6.9911,0.307,-2.776,-0.1815
-6.6798,-1.5467,-6.9121,0.3387,-2.8328,-0.206
-6.7756,-1.6424,-6.7229,0.3419,-2.8813,-0.2419
-6.2848,-1.8914,-6.5912,0.3043,-2.9412,-0.2246
-6.5841,-1.8938,-6.3494,0.2729,-2.925,-0.1601
-6.699,-1.6424,-6.0717,0.223,-2.9695,-0.1514
-7.3478,-1.3575,-5.7245,0.1514,-3.0238,-0.2286
-6.9887,-1.3575,-5.5737,0.036,-3.1171,-0.1974
-7.4364,-1.5083,-5.7269,0.0051,-3.1019,-0.1956
-7.3526,-1.5562,-5.4875,0.0741,-3.0633,-0.1236
-7.6016,-1.5538,-5.3798,0.1828,-3.0086,-0.1204
-7.6998,-1.6759,-5.4324,0.2659,-2.9721,-0.069
-7.604,-1.7837,-5.3223,0.3195,-2.9279,-0.0533
-7.6064,-1.7861,-4.6878,0.3368,-2.7763,-0.0301
-8.1618,-1.8794,-4.4341,0.328,-2.6558,-0.0901
-8.2552,-1.9537,-4.5945,0.2936,-2.5359,-0.0304
-8.6862,-1.8794,-4.9967,0.2457,-2.3776,-0.0133
-8.3079,-1.8028,-4.853,0.1974,-2.2569,-0.0037
-8.4779,-1.8818,-4.3263,0.1482,-1.9846,0.036
-8.7388,-1.4198,-4.1372,0.0767,-1.8077,-0.0434
-8.6526,-1.6185,-4.1946,0.0474,-1.6766,-0.0576
-8.5425,-1.6688,-4.1946,0.0885,-1.5418,-0.0208
-8.6024,-1.5993,-3.9552,0.1492,-1.3526,0.0466
-8.7819,-1.4964,-3.7541,0.1871,-1.2183,0.0021
-8.6167,-1.7047,-4.0965,0.211,-1.0949,0.0141
-8.5569,-1.9968,-4.8746,0.2611,-0.9486,0.048
-8.3127,-2.2553,-4.9704,0.3328,-0.8319,0.1791
-7.7859,-1.3862,-4.6902,0.3099,-0.7408,0.2356
-8.102,-1.2115,-4.3048,0.0586,-0.6654,0.0978
-8.2337,-1.6161,-3.9504,-0.0195,-0.6803,0.0376
-8.0206,-1.4437,-3.9792,0.0242,-0.6723,0.0429
-8.169,-1.4341,-3.7924,0.0805,-0.5993,0.0845
-8.5784,-1.3168,-3.4572,0.126,-0.5308,0.1007
-8.8609,-1.3288,-3.2082,0.1228,-0.4266,0.0863
-9.3063,-1.4054,-3.2274,0.113,-0.2763,0.0927
-9.3613,-1.6065,-3.4405,0.1319,-0.0914,0.1061
-8.9328,-1.7933,-3.644,0.149,0.1458,0.1018
-8.667,-1.9178,-3.5195,0.1442,0.3453,0.0853
-8.5186,-1.9178,-3.3279,0.11,0.4269,0.073
-8.3677,-1.8196,-3.5602,0.0445,0.4175,0.0663
-7.944,-1.6951,-4.051,-0.0077,0.3757,0.0592
-7.6543,-1.6041,-4.458,-0.0253,0.3246,0.0578
-7.5681,-1.494,-4.1563,-0.0272,0.2409,0.0533
-7.8937,-1.4054,-3.7038,-0.0123,0.1087,0.0405
-8.09,-1.3886,-3.7421,0.028,-0.0341,0.0464
-8.1594,-1.4269,-4.0366,0.081,-0.0869,0.0621
-8.3845,-1.5586,-4.0606,0.1212,-0.056,0.064
-8.6407,-1.7454,-4.0055,0.1292,-0.049,0.0562
-8.4348,-1.8842,-3.6272,0.1026,-0.0304,0.0546
-8.6215,-1.889,-3.3639,0.0632,-0.0059,0.0453
-8.7532,-1.9201,-3.3208,0.0221,-0.0083,0.0381
-8.7005,-1.7813,-3.5602,-0.0064,0.0309,0.0266
-8.6072,-1.7214,-3.6919,-0.0083,0.1079,0.0256
-8.4898,-1.6544,-3.802,-0.0013,0.1585,0.0232
-8.4683,-1.5993,-3.8666,0.0027,0.1641,0.0136
-8.351,-1.585,-3.984,0.0075,0.1452,0.0093
-8.2289,-1.6544,-4.2282,0.0195,0.1231,0.0072
-8.1738,-1.6831,-4.4772,0.0402,0.0978,0.0187
-8.272,-1.6735,-4.4221,0.0434,0.053,0.0171
-8.3725,-1.6759,-4.142,0.0352,0.0189,0.0131
-8.6143,-1.7597,-3.8666,0.0213,0.0211,0.0056
-8.8274,-1.7765,-3.8571,0.0224,0.0466,0.0091
-8.9208,-1.8004,-4.0079,0.0264,0.1124,0.0195
-8.9184,-1.7765,-4.0294,0.0301,0.1951,0.0266
-8.8274,-1.8028,-3.8882,0.0213,0.2606,0.0213
-8.6742,-1.8148,-3.9097,0.0141,0.2923,0.0176
-8.5138,-1.81,-3.9049,0.0045,0.3027,0.0165
-8.5305,-1.7693,-3.8906,-0.0003,0.3027,0.0104
-8.521,-1.7885,-3.7637,-0.0035,0.2654,0.0099
-8.3725,-1.7214,-3.7637,-0.0123,0.2236,0.0128
-8.3366,-1.7382,-3.7038,-0.012,0.1873,0.0048
-8.4922,-1.7166,-3.7685,-0.0091,0.1346,-0.004
-8.418,-1.743,-3.8666,-0.0067,0.097,-0.0147
-8.4228,-1.7645,-3.8666,0.0008,0.0709,-0.0213
-8.3582,-1.7502,-3.9863,0.008,0.0394,-0.0218
-8.272,-1.7933,-4.2042,0.0152,0.029,-0.0242
-8.4946,-1.7837,-4.1635,0.0072,0.0386,-0.04
-8.7364,-1.7071,-3.984,0.0011,0.0426,-0.0522
-8.7484,-1.7047,-4.1156,0.0024,0.0645,-0.0586
-8.7556,-1.7142,-4.276,0.0096,0.0999,-0.0557
-8.6407,-1.7119,-4.5059,0.0293,0.1418,-0.0581
-8.5162,-1.7334,-4.6064,0.0421,0.1876,-0.0616
-8.5712,-1.6999,-4.5226,0.0434,0.2198,-0.0616
-8.7053,-1.6424,-4.4796,0.037,0.2449,-0.0762
-8.8538,-1.6233,-4.379,0.0354,0.2883,-0.0847
-8.9998,-1.6305,-4.4365,0.045,0.368,-0.0839
-9.0956,-1.6448,-4.3742,0.0663,0.4844,-0.0722
-9.1459,-1.6185,-4.3072,0.0789,0.6273,-0.0626
-9.1123,-1.6233,-4.288,0.0805,0.8023,-0.0616
-9.0836,-1.5897,-4.3455,0.0866,1.0048,-0.0605
-9.3063,-1.7047,-4.3886,0.0885,1.2638,-0.0461
-9.4451,-1.7669,-4.5131,0.1218,1.5018,-0.0354
-9.3039,-1.7071,-4.7214,0.1575,1.7411,-0.037
-9.0908,-1.7502,-4.8866,0.1825,1.978,-0.048
-8.9112,-1.81,-4.9895,0.2025,2.2031,-0.0469
-8.9759,-1.822,-5.1451,0.2116,2.3827,-0.0312
-8.77,-1.7837,-5.3654,0.1897,2.5218,-0.0325
-8.4874,-1.8244,-5.4588,0.158,2.6614,-0.0458
-8.3606,-1.8435,-5.5498,0.1348,2.8003,-0.06
-8.1642,-1.7454,-5.5282,0.1196,2.9162,-0.0653
-8.0469,-1.743,-5.5402,0.1015,3.0238,-0.0525
-7.853,-1.6879,-5.77,0.0709,3.1578,-0.0488
-7.9057,-1.6807,-5.4779,0.025,3.3017,-0.0248
-7.9775,-1.8723,-5.2577,0.0096,3.3958,-0.028
-7.7213,-1.7933,-5.3223,0.0509,3.5168,-0.0107
-7.4531,-1.6233,-5.6767,0.0709,3.6655,-0.0392
-7.3047,-1.7693,-5.8945,0.0751,3.8885,-0.0498
-7.4196,-1.9178,-5.8634,0.1066,4.1589,-0.0341
-7.5178,-1.7909,-5.8586,0.1506,4.4462,-0.0043
-7.8147,-1.8172,-5.9233,0.1559,4.7694,0.0123
-7.6806,-1.8699,-6.1148,0.145,5.1323,0.0027
-7.5106,-2.0734,-6.2058,0.1442,5.5808,-0.0171
-7.4077,-2.0327,-6.4045,0.1311,6.0175,-0.0605
-7.2856,-2.0877,-6.3255,0.0919,6.4463,-0.0775
-7.0294,-2.0877,-6.28,0.0221,6.8292,-0.1063
-6.7564,-2.0853,-6.1866,-0.0586,7.1734,-0.1148
-6.2297,-1.9752,-6.6583,-0.1593,7.4897,-0.1503
-5.6455,-1.9273,-7.1682,-0.2854,7.8129,-0.206
-5.0973,-1.9058,-7.5106,-0.3845,8.0909,-0.2737
-4.5514,-1.9824,-7.4077,-0.4458,8.2742,-0.2856
-3.8786,-1.8028,-7.5417,-0.4141,8.3179,-0.2382
-2.8922,-1.6233,-7.9799,-0.3896,8.3179,-0.2086
-2.2673,-1.6089,-8.1307,-0.4002,8.2292,-0.2252
-1.5299,-1.6281,-8.1451,-0.4008,7.9909,-0.2662
-0.5028,-1.6975,-8.6215,-0.3957,7.7671,-0.3
-0.5914,-1.8124,-9.1842,-0.377,7.5329,-0.2827
-0.4525,-1.5419,-10.1275,-0.3547,7.1772,-0.2513
-0.158,-1.2522,-10.8146,-0.3976,6.8662,-0.2803
-0.1891,-1.2378,-11.2264,-0.4231,6.5155,-0.2467
0.2538,-1.8699,-11.9447,-0.4191,6.1627,-0.1556
0.5842,-1.7238,-12.0811,-0.2665,5.9288,-0.226
0.4884,-1.6113,-11.971,-0.15,5.6583,-0.3704
0.4214,-2.0638,-11.9016,-0.0677,5.2669,-0.4732
0.249,-2.5786,-11.2791,0.0525,4.9021,-0.4527
0.0646,-2.8874,-9.9958,0.1212,4.5488,-0.4194
0.4693,-3.2034,-8.8777,0.0855,4.33,-0.332
0.4621,-2.6001,-9.3733,-0.1284,4.2954,-0.3288
0.6345,-2.3703,-9.1411,-0.3701,4.1411,-0.3493
0.5866,-2.0925,-9.0932,-0.4815,4.0409,-0.3187
-0.1604,-1.8004,-9.3326,-0.412,4.0561,-0.2228
-0.3376,-1.4988,-8.8753,-0.2657,4.0393,-0.2172
1.0774,-1.3671,-7.8123,-0.2318,4.0294,-0.1924
2.7653,-1.6807,-7.5106,-0.2966,4.0302,-0.199
3.0454,-1.8364,-7.1323,-0.3427,3.9349,-0.2473
3.1292,-1.9201,-6.9576,-0.3584,3.6463,-0.2483
3.4572,-1.8387,-7.1323,-0.3555,3.3841,-0.2137
4.3024,-1.8723,-7.118,-0.4042,3.1664,-0.1788
4.7285,-1.6903,-7.2257,-0.4922,3.059,-0.1071
4.9416,-1.4748,-7.4939,-0.5915,2.8522,-0.0815
5.3295,-1.2067,-7.6112,-0.6134,2.6015,-0.0597
5.9568,-0.9673,-8.0685,-0.6073,2.3212,-0.0663
6.3375,-0.7566,-8.3989,-0.5772,2.0528,-0.0533
6.4931,-0.6033,-8.9807,-0.534,1.7368,-0.0032
6.2752,-0.3615,-9.4763,-0.49,1.3912,0.0077
6.0885,-0.2394,-9.742,-0.4378,1.0581,0.0117
5.6288,-0.0838,-10.0197,-0.3603,0.7448,0.0234
5.0781,0.012,-10.173,-0.2747,0.466,0.0373
4.7022,-0.0503,-10.2735,-0.2004,0.2547,0.0429
4.4412,-0.0814,-10.4794,-0.1314,0.1252,0.0408
4.3335,-0.1915,-10.5919,-0.0733,0.0309,0.0429
4.3383,-0.498,-10.5058,-0.0346,-0.0168,0.073
4.4101,-0.4022,-10.4675,0.0069,-0.1532,0.0466
4.6567,-0.5578,-10.2376,0.04,-0.2345,0.0378
4.4915,-0.6991,-10.1394,0.0895,-0.3096,0.04
4.4628,-0.7207,-10.0389,0.1114,-0.3789,0.0322
4.2904,-0.8547,-9.8306,0.113,-0.404,0.0224
4.2138,-0.8595,-9.7468,0.1116,-0.4309,0.0059
4.1611,-0.8811,-9.6438,0.1071,-0.4546,-0.0005
4.1084,-0.8428,-9.4858,0.117,-0.4879,0.0003
3.9624,-0.9146,-9.4786,0.1287,-0.4775,-0.0032
3.723,-0.9481,-9.4451,0.1306,-0.4706,-0.0072
3.6943,-0.9816,-9.4308,0.1148,-0.4485,-0.0107
3.5458,-1.1492,-9.5816,0.0925,-0.4213,-0.0157
3.5386,-1.166,-9.6151,0.0701,-0.4104,-0.0213
3.4644,-1.0965,-9.7061,0.0608,-0.3928,-0.0173
3.4046,-1.075,-9.7947,0.053,-0.3837,-0.0144
3.4333,-1.0798,-9.8689,0.0434,-0.3659,-0.0133
3.4165,-1.0894,-10.0365,0.0405,-0.3392,-0.0125
3.4716,-1.0774,-10.082,0.0341,-0.3371,-0.0077
3.5075,-1.1253,-10.2783,0.0349,-0.3427,-0.0107
3.62,-1.1636,-10.319,0.033,-0.3627,-0.0181
3.6775,-1.1205,-10.3166,0.0285,-0.4117,-0.0192
3.8283,-1.1349,-10.1801,0.0306,-0.4588,-0.0189
3.723,-1.142,-10.2089,0.0232,-0.5185,-0.0168
3.699,-1.1995,-10.1849,0.0144,-0.6041,-0.0133
3.6559,-1.1732,-10.0987,0.0035,-0.6939,-0.0125
3.632,-1.0702,-10.0126,-0.0061,-0.7727,-0.0189
3.6344,-1.0343,-9.9551,-0.0131,-0.8556,-0.0232
3.7158,-1.0199,-9.845,-0.0181,-0.9473,-0.0232
3.7254,-0.9697,-9.821,-0.0232,-1.0424,-0.0221
3.6368,-0.972,-9.8306,-0.0349,-1.1426,-0.0197
3.6272,-0.9385,-9.8019,-0.0312,-1.2319,-0.0171
3.4596,-0.8859,-9.7636,-0.0256,-1.3038,-0.0163
3.3878,-0.8859,-9.7037,-0.016,-1.3542,-0.012
3.3399,-0.9481,-9.6726,0.0005,-1.3827,-0.0085
3.1101,-0.9409,-9.7181,0.0125,-1.3984,-0.0083
2.8802,-0.972,-9.7588,0.0141,-1.4261,0.0021
2.7964,-0.9577,-9.7133,0.0059,-1.4474,0.0176
2.7054,-0.984,-9.6702,-0.0067,-1.4645,0.0149
2.5043,-0.9433,-9.7612,-0.0035,-1.4634,0.0019
2.3942,-0.9984,-9.9838,-0.0101,-1.493,-0.0037
2.217,-1.0774,-9.9479,-0.0043,-1.4986,0.0216
2.1715,-1.0511,-9.9671,0.0,-1.5388,0.036
2.2913,-1.0726,-9.9671,-0.0237,-1.5836,0.0237
2.3655,-1.2091,-10.0149,-0.0392,-1.6241,0.0056
2.5091,-1.1779,-9.9407,-0.0354,-1.679,0.0109
2.5809,-1.233,-9.9479,-0.0384,-1.7184,0.0248
2.4684,-1.1875,-10.1035,-0.0296,-1.7834,0.0344
2.3104,-1.2282,-10.0341,-0.0141,-1.8117,0.0501
2.1524,-1.2139,-9.979,-0.0064,-1.8548,0.0589
2.0279,-1.1899,-10.0006,-0.0354,-1.9183,0.0589
2.1763,-1.1325,-10.0006,-0.0671,-2.0121,0.057
2.2003,-1.0942,-10.1299,-0.0874,-2.0598,0.0578
1.8723,-1.075,-10.2687,-0.0765,-2.1296,0.0562
1.561,-1.0463,-10.1969,-0.0472,-2.2287,0.0578
1.3743,-0.9888,-10.3908,-0.0056,-2.3377,0.0509
1.2402,-1.0032,-10.4818,0.0139,-2.4336,0.0506
1.0415,-1.0439,-10.6303,0.0192,-2.5245,0.0397
0.9553,-1.1923,-10.7188,0.0184,-2.5889,0.0333
0.8021,-1.2234,-10.6781,0.0274,-2.6326,0.0432
0.5339,-1.2019,-10.6207,0.0341,-2.6662,0.0576
0.3998,-1.1588,-10.6566,0.0229,-2.7011,0.0581
0.2634,-1.142,-10.5943,0.012,-2.711,0.0592
0.0958,-1.1636,-10.7045,0.0229,-2.6748,0.0482
0.0,-1.2689,-10.7117,0.0554,-2.626,0.057
-0.1628,-1.2306,-10.4746,0.0759,-2.5511,0.0701
-0.4118,-1.1923,-10.4531,0.0861,-2.4882,0.0642
-0.498,-1.2067,-10.477,0.0951,-2.4405,0.0757
-0.3711,-1.1301,-10.1514,0.0847,-2.416,0.0946
-0.3903,-1.2881,-9.8857,0.0648,-2.3726,0.0869
-0.4836,-1.2833,-9.9862,0.06,-2.3625,0.0866
-0.5315,-1.2306,-9.809,0.0552,-2.359,0.0922
-0.565,-1.0175,-9.6486,0.0413,-2.3393,0.0874
-0.8068,-1.075,-9.7205,0.0442,-2.3036,0.0834
-1.1995,-0.8763,-9.9288,0.0661,-2.3814,0.0941
-1.1277,-0.9673,-9.6223,0.0496,-2.4376,0.0829
-1.3312,-1.0487,-9.4715,0.0679,-2.4355,0.0754
-1.6137,-1.0032,-9.5146,0.0903,-2.3998,0.0743
-1.7741,-1.1325,-9.3518,0.0903,-2.3196,0.0751
-1.9345,-1.1133,-9.1794,0.0863,-2.2194,0.0717
-2.2098,-1.1492,-9.0668,0.0805,-2.1168,0.0706
-2.4469,-1.1995,-9.2799,0.0746,-2.0283,0.0861
-2.4277,-1.2186,-9.5098,0.0621,-1.9558,0.0917
-2.2051,-1.221,-9.4643,0.0408,-1.8045,0.0711
-2.3272,-1.2953,-9.4571,0.0328,-1.6065,0.0682
-2.4756,-1.1636,-9.651,0.0325,-1.4669,0.0786
-2.3942,-1.075,-9.7276,0.0237,-1.3771,0.0661
-2.2242,-1.1588,-9.8138,0.0349,-1.3235,0.0448
-2.0877,-1.1732,-10.0102,0.0677,-1.3235,0.073
-1.8747,-1.0582,-10.2089,0.0866,-1.3808,0.0794
-1.6927,-1.0295,-10.24,0.0829,-1.4839,0.0624
-1.6807,-1.1349,-9.8976,0.0703,-1.6049,0.0301
-1.822,-1.1995,-9.8761,0.0666,-1.7701,0.0045
-1.9201,-1.1253,-9.8593,0.0578,-1.9335,-0.0109
-2.2146,-1.1109,-9.7683,0.0687,-2.0331,-0.0208
-2.6911,-1.0439,-9.5577,0.1066,-2.1019,-0.0309
-3.2274,-1.0127,-9.5265,0.1223,-2.1805,-0.0088
-3.5291,-1.0247,-9.3494,0.1143,-2.2468,0.0072
-3.8307,-1.0918,-9.3661,0.1029,-2.2058,-0.0272
-3.9169,-1.2737,-9.3972,0.0861,-2.0995,-0.0421
-4.1372,-1.4365,-9.2991,0.0773,-1.9462,-0.0296
-4.3072,-1.4389,-9.2129,0.0791,-1.8032,-0.0312
-4.5179,-1.3815,-9.3111,0.061,-1.6289,-0.0301
-4.2042,-1.3384,-9.2823,0.0197,-1.4599,-0.0317
-4.0893,-1.3551,-9.4068,-0.0096,-1.2548,-0.0336
-3.9097,-1.3384,-9.5984,-0.0013,-1.1034,-0.0426
-3.6248,-1.3886,-9.6606,0.0221,-1.0024,-0.029
-3.3399,-1.4748,-9.4068,0.0589,-0.9665,-0.0264
-3.1963,-1.3958,-9.1459,0.089,-0.9502,-0.0221
-3.0167,-1.2761,-9.4786,0.061,-1.0605,-0.0482
-3.0071,-1.3815,-9.8354,-0.0211,-1.2564,-0.0581
-3.0502,-1.3815,-9.6893,-0.052,-1.4338,-0.0674
-3.304,-1.2857,-9.5696,-0.0477,-1.5849,-0.0632
-3.3902,-1.142,-9.426,-0.0256,-1.7184,-0.0506
-3.632,-1.0247,-9.3685,-0.0035,-1.7994,-0.0394
-3.9863,-0.9122,-9.1315,0.0061,-1.8063,-0.0242
-4.5107,-0.8882,-8.8657,0.0131,-1.8447,-0.0328
-4.8985,-0.9601,-8.7891,0.0338,-1.9052,-0.0442
-4.8076,-1.0894,-8.8394,0.0616,-1.8868,-0.0362
-4.695,-1.2498,-8.8777,0.0938,-1.736,-0.0195
-4.956,-1.3312,-8.6622,0.1077,-1.5508,-0.0242
-5.2074,-1.3934,-8.521,0.0954,-1.4109,-0.0253
-5.1547,-1.3886,-8.6167,0.0557,-1.3398,-0.0234
-4.944,-1.4102,-8.679,0.0189,-1.2945,-0.0168
-4.7142,-1.4413,-8.8107,0.0085,-1.2542,-0.0163
-4.5753,-1.2833,-8.7676,0.0131,-1.2502,-0.0112
-4.7381,-1.3288,-8.6431,0.0288,-1.278,-0.0338
-4.81,-1.3168,-8.5712,0.052,-1.3853,-0.0525
-4.7285,-1.2881,-8.509,0.0677,-1.5055,-0.0645
-4.7022,-1.2617,-8.6287,0.0714,-1.6241,-0.0453
-4.6543,-1.1923,-8.8131,0.0685,-1.7203,-0.0242
-4.6471,-1.2234,-8.758,0.0498,-1.8037,-0.0115
-4.8267,-1.1779,-8.3629,0.0474,-1.8556,-0.0272
-4.9392,-1.2186,-8.1834,0.053,-1.9657,-0.0506
-4.9488,-1.2498,-8.1092,0.0698,-2.0419,-0.0621
-4.9608,-1.3048,-7.9248,0.0967,-2.0608,-0.0685
-5.363,-1.2402,-7.8075,0.1162,-2.0467,-0.0727
-5.8538,-1.2234,-7.8985,0.1204,-2.0851,-0.0762
-6.0765,-1.2905,-8.0828,0.1242,-2.2036,-0.0946
-5.7748,-1.4126,-7.8099,0.1111,-2.339,-0.0701
-5.1212,-1.4389,-8.102,0.1116,-2.4408,-0.1037
-5.3798,-1.3886,-8.1379,0.1085,-2.4744,-0.126
-5.5929,-1.4964,-8.0445,0.0789,-2.6638,-0.1396
-5.3223,-1.5514,-7.8937,0.0783,-2.8416,-0.1354
-5.3606,-1.3024,-7.9751,0.0778,-2.987,-0.1553
-5.5162,-1.2689,-7.9703,0.056,-3.1533,-0.1631
-5.4612,-1.2713,-7.7285,0.0464,-3.2583,-0.1929
-6.1292,-1.482,-7.4148,0.0626,-3.3534,-0.2225
-6.4763,-1.5371,-7.1275,0.1503,-3.5144,-0.1748
-6.5386,-1.2881,-6.9767,0.2273,-3.5877,-0.1476
-6.7421,-1.2139,-6.7708,0.2539,-3.5874,-0.1823
-7.4172,-1.1732,-6.5218,0.2369,-3.5613,-0.2209
-7.5848,-1.3024,-6.2058,0.1998,-3.5205,-0.1815
-8.0852,-1.3312,-5.873,0.1945,-3.3851,-0.2057
-8.3821,-1.4844,-5.8083,0.1876,-3.2679,-0.1961
-8.7245,-1.5323,-5.8131,0.211,-3.1413,-0.1929
-8.6598,-1.5826,-5.794,0.2204,-2.9791,-0.1684
-8.3414,-1.6448,-5.6192,0.2206,-2.7901,-0.219
-8.3653,-1.7286,-5.4516,0.2188,-2.5903,-0.2582
-8.4276,-1.7597,-5.3893,0.1943,-2.4229,-0.2158
-8.3151,-1.64,-5.2696,0.1556,-2.3438,-0.2244
-7.9368,-1.6616,-5.2936,0.0797,-2.2433,-0.2222
-7.4819,-1.8699,-5.2433,0.0346,-2.1442,-0.2222
-7.2496,-1.9609,-5.1404,0.049,-2.0294,-0.1466
-7.4986,-1.5993,-5.0182,0.0829,-1.971,-0.1383
-7.8745,-1.4054,-4.9512,0.0797,-2.0238,-0.1927
-7.9799,-1.3886,-4.7094,0.0642,-2.0336,-0.1343
-8.2624,-1.3719,-4.4987,0.0906,-1.9492,-0.1148
-8.4563,-1.3599,-4.3479,0.1537,-1.8239,-0.1553
-8.6143,-1.4198,-4.3766,0.2054,-1.7014,-0.1591
-8.734,-1.6281,-4.8267,0.239,-1.562,-0.1308
-8.7029,-1.7406,-5.3654,0.2598,-1.3997,-0.0858
-8.6503,-1.5802,-5.5019,0.2348,-1.2425,-0.0344
-8.6622,-1.549,-5.0087,0.1713,-1.1322,-0.0562
-8.8059,-1.6496,-4.4005,0.1178,-1.0635,-0.0749
-8.6359,-1.7741,-4.4029,0.0983,-1.0035,-0.0658
-8.5114,-1.6831,-4.3838,0.1188,-0.8727,-0.0357
-8.5258,-1.5778,-3.9744,0.1577,-0.6989,-0.0141
-8.5856,-1.5562,-3.6727,0.1777,-0.5697,-0.0221
-8.5784,-1.5802,-3.7493,0.1692,-0.502,-0.0075
-8.3486,-1.5706,-4.1228,0.1553,-0.4413,0.0155
-8.2672,-1.5969,-4.1132,0.1327,-0.348,0.0011
-8.5617,-1.5634,-4.051,0.122,-0.2683,-0.0104
-8.7388,-1.6544,-4.1779,0.1303,-0.1919,0.0011
-8.7388,-1.6137,-4.2593,0.1378,-0.0797,0.0149
-8.5401,-1.6424,-4.1563,0.1284,0.0653,0.0155
-8.4276,-1.6281,-3.9672,0.1186,0.1815,0.008
-8.3007,-1.6281,-3.7541,0.0997,0.2049,0.0011
-7.9416,-1.5778,-3.462,0.0677,0.1911,-0.0043
-7.9296,-1.506,-3.6392,0.0373,0.1871,-0.008
-7.8673,-1.5227,-3.8954,0.0072,0.122,0.0
-7.7812,-1.4796,-3.8116,0.0083,0.0994,0.004
-7.9104,-1.3455,-3.7493,0.0195,0.0653,-0.0024
-8.1187,-1.3431,-3.8403,0.045,0.0208,0.0069
-8.0613,-1.3647,-4.0725,0.0618,-0.0035,0.0187
-8.0589,-1.506,-4.13,0.0794,0.0059,0.016
-8.1786,-1.6688,-4.0917,0.0981,0.0179,0.0123
-8.2839,-1.7071,-4.1659,0.0978,0.0144,0.0187
-8.3175,-1.6975,-4.1515,0.0799,0.0384,0.0274
-8.3941,-1.7262,-3.9409,0.0509,0.0671,0.0179
-8.406,-1.7549,-3.7397,0.0482,0.0951,0.0168
-8.3127,-1.7645,-3.8882,0.0528,0.1071,0.0293
-7.9511,-1.7478,-3.8355,0.0562,0.1252,0.0309
-7.944,-1.6831,-3.7421,0.0384,0.0919,0.0203
-7.9272,-1.5945,-3.7206,0.0107,0.0029,0.0213
-7.9655,-1.5323,-3.79,-0.0107,-0.0682,0.0168
-8.1451,-1.4964,-3.8307,-0.0096,-0.1106,0.0139
-8.3486,-1.494,-3.7876,0.0147,-0.1383,0.0184
-8.4659,-1.5634,-4.0342,0.0458,-0.1359,0.024
-8.5832,-1.6879,-4.2258,0.0794,-0.0885,0.0296
-8.6263,-1.7645,-4.3024,0.1037,-0.008,0.0245
-8.5665,-1.913,-4.221,0.1098,0.0554,0.0229
-8.4563,-1.9537,-4.3335,0.1071,0.1053,0.028
-8.4659,-1.9393,-4.276,0.0898,0.1436,0.0293
-8.5162,-1.8771,-4.0821,0.0698,0.1719,0.0229
-8.4659,-1.7071,-3.8547,0.0557,0.1895,0.0187
-8.442,-1.6281,-3.8499,0.0546,0.1961,0.0173
-8.3438,-1.6161,-3.8642,0.069,0.1937,0.02
-8.2863,-1.5586,-3.8427,0.0813,0.1849,0.0213
-8.3007,-1.5251,-3.6655,0.0871,0.1628,0.0144
-8.3677,-1.5778,-3.632,0.0802,0.1298,0.0064
-8.5042,-1.6209,-3.6919,0.0783,0.0954,0.0003
-8.5329,-1.6616,-3.8068,0.0773,0.0845,-0.0096
-8.4587,-1.6831,-3.8954,0.0794,0.0973,-0.0144
-8.4204,-1.7166,-3.9002,0.0719,0.1212,-0.0234
-8.4731,-1.7813,-3.8834,0.0626,0.1415,-0.037
-8.6024,-1.8411,-3.8882,0.0602,0.1418,-0.0498
-8.5832,-1.834,-4.2258,0.0538,0.1537,-0.057
-8.5665,-1.8292,-4.4939,0.0472,0.1727,-0.0594
-8.6359,-1.7454,-4.5681,0.0298,0.1828,-0.0653
-8.5904,-1.7813,-4.6017,0.0136,0.1972,-0.0783
-8.6455,-1.7837,-4.6878,0.0165,0.218,-0.0877
-8.7125,-1.7526,-4.7501,0.0354,0.2705,-0.0818
-8.6694,-1.7549,-4.8387,0.0549,0.3621,-0.077
-8.8681,-1.7478,-4.8914,0.0837,0.4738,-0.0733
-9.0381,-1.7238,-4.9344,0.0815,0.6169,-0.0725
-9.1578,-1.7214,-5.0901,0.0722,0.8119,-0.0629
-9.3134,-1.7142,-5.1978,0.065,1.0419,-0.0536
-9.3661,-1.7861,-5.1499,0.0858,1.3054,-0.0381
-9.3278,-1.6664,-5.3247,0.1343,1.5918,-0.0131
-9.3111,-1.6065,-5.545,0.1498,1.8924,0.0128
-9.1698,-1.7023,-5.4109,0.1343,2.1762,0.0208
-9.1387,-1.8244,-5.2241,0.1447,2.4341,0.0176
-8.9998,-1.7861,-5.2864,0.1799,2.687,0.0224
-8.9016,-1.8076,-5.3079,0.203,2.9567,0.0472
-9.0046,-1.7669,-5.2002,0.223,3.2711,0.0725
-8.8562,-1.7454,-5.1404,0.2388,3.5754,0.0802
-8.8633,-1.8723,-5.1619,0.2385,3.9093,0.0842
-8.7795,-1.834,-5.3343,0.2313,4.2106,0.0826
-8.7556,-1.8148,-5.3606,0.2126,4.5451,0.0773
-8.6503,-1.901,-5.2481,0.2054,4.8454,0.1018
-8.6766,-1.8483,-5.2696,0.2148,5.1518,0.0911
-8.1044,-1.8531,-5.3726,0.2009,5.4212,0.0261
-7.8745,-1.8818,-5.2625,0.1743,5.7564,-0.0117
-7.4986,-1.9872,-5.0853,0.1394,6.0535,-0.0312
-7.276,-1.9178,-5.2744,0.1042,6.3495,-0.0397
-6.8067,-1.913,-5.7581,0.0203,6.6275,-0.0663
-6.6032,-1.9992,-6.11,-0.0669,6.9501,-0.0831
-6.0837,-2.1069,-6.2513,-0.1372,7.2073,-0.11
-5.545,-2.1404,-6.7469,-0.1961,7.4354,-0.1207
-4.9297,-2.0063,-7.1898,-0.2403,7.6432,-0.1452
-4.5011,-1.9106,-7.1778,-0.2998,7.7607,-0.1889
-4.1707,-1.9106,-7.5154,-0.3192,7.8113,-0.2062
-3.723,-1.6664,-8.0134,-0.316,7.7938,-0.202
-3.3016,-1.7023,-8.3797,-0.3571,7.7623,-0.2132
-2.6767,-2.0135,-8.2025,-0.3136,7.6898,-0.223
-2.5139,-2.0039,-8.442,-0.2001,7.6376,-0.1855
-2.5259,-1.7549,-9.4643,-0.1668,7.4282,-0.1529
-2.1404,-1.5706,-10.2161,-0.2254,7.1876,-0.1204
-2.0016,-1.4844,-10.7164,-0.2718,6.9118,-0.1244
-1.8364,-1.3982,-11.4036,-0.2278,6.6621,-0.1495
-1.7502,-1.5706,-11.0708,-0.1649,6.3887,-0.1356
-1.1923,-2.2745,-10.6757,-0.1788,6.0948,-0.1551
-0.6225,-2.4517,-11.2408,-0.1468,5.9195,-0.2441
0.0335,-2.5426,-11.4491,-0.1348,5.8097,-0.3432
0.4645,-2.9497,-10.4267,-0.1183,5.5795,-0.4064
0.9074,-3.4405,-9.2488,-0.0762,5.1582,-0.384
1.2641,-3.0502,-8.6503,-0.1127,4.5832,-0.3792
1.6999,-2.3703,-9.0477,-0.3264,3.9338,-0.3256
1.81,-1.5562,-10.1825,-0.5689,3.3747,-0.2598
0.0311,-1.4796,-10.726,-0.5689,3.0542,-0.251
-0.4525,-1.8986,-9.3613,-0.2811,2.9204,-0.2102
-0.7566,-1.64,-8.0517,0.0269,3.075,-0.129
-0.3208,-1.5251,-7.5537,0.0504,3.0843,-0.1045
0.6416,-1.8962,-7.6184,-0.1575,3.0369,-0.1583
1.0798,-2.3822,-7.4292,-0.3786,2.962,-0.2278
1.1708,-2.2865,-7.1228,-0.4794,2.8453,-0.2454
1.3503,-1.9393,-7.1204,-0.5324,2.7075,-0.1844
1.7645,-1.7573,-7.3741,-0.578,2.6105,-0.1226
2.1955,-1.5826,-7.5705,-0.6081,2.5639,-0.0826
2.2075,-1.3527,-8.2097,-0.6222,2.5607,-0.0389
2.4086,-1.1349,-8.6383,-0.6267,2.5375,-0.0157
2.9688,-1.1349,-8.9328,-0.5974,2.5394,0.0234
3.7302,-1.1564,-9.3446,-0.5321,2.5285,0.073
4.1731,-0.9864,-9.742,-0.4815,2.4618,0.0799
4.8076,-0.9194,-10.0173,-0.4226,2.2966,0.1156
5.114,-0.8691,-10.1706,-0.3709,2.0768,0.158
5.4348,-0.8811,-10.0676,-0.3248,1.8066,0.1735
5.5665,-0.8356,-9.9958,-0.2769,1.5449,0.1812
5.1691,-0.8404,-9.9096,-0.2555,1.2716,0.1863
5.0015,-0.8284,-9.9096,-0.223,0.9566,0.198
4.628,-0.735,-10.0317,-0.1964,0.6968,0.1988
4.2593,-0.6728,-9.9383,-0.1929,0.4668,0.1865
3.8738,-0.6105,-9.8904,-0.1913,0.2654,0.1692
3.5889,-0.498,-9.9264,-0.1681,0.0927,0.1434
2.8826,-0.5171,-10.1011,-0.1681,0.0392,0.1684
2.9975,-0.2538,-10.2711,-0.138,-0.1367,0.1186
2.9042,-0.3232,-10.228,-0.1071,-0.1529,0.1114
2.6552,-0.2945,-10.2807,-0.0608,-0.1482,0.097
2.7102,-0.3472,-10.2639,-0.028,-0.1186,0.0845
2.7366,-0.4118,-10.2831,-0.0043,-0.0218,0.0685
2.7533,-0.5387,-10.2999,0.0301,0.0919,0.0765
3.0382,-0.5842,-10.1275,0.0408,0.1591,0.0506
3.3591,-0.7757,-10.0868,0.0538,0.2502,0.0336
3.7278,-0.8547,-10.1394,0.0525,0.2222,0.0261
3.9217,-0.9936,-10.1203,0.0493,0.1695,0.0149
4.051,-1.0726,-10.094,0.056,0.0528,0.0064
3.8666,-1.1372,-10.094,0.0525,-0.0629,0.0096
3.6464,-1.1444,-10.0126,0.0338,-0.1988,0.0117
3.4692,-1.1133,-9.9766,0.0157,-0.312,0.0157
3.1436,-1.0415,-10.1059,0.0027,-0.3832,0.0242
2.8323,-1.0175,-10.2903,-0.0165,-0.4199,0.0258
2.7031,-0.9649,-10.4435,-0.0203,-0.4229,0.0234
2.2075,-0.984,-10.6111,-0.0322,-0.3464,0.0269
2.4086,-0.8811,-10.7212,-0.0264,-0.3224,0.0003
2.3822,-0.893,-10.7188,-0.0157,-0.2241,-0.0045
2.4684,-0.9098,-10.8074,-0.0075,-0.178,-0.0165
2.6911,-0.9673,-10.6135,-0.0091,-0.1364,-0.0309
2.8252,-0.9744,-10.3789,-0.0088,-0.1034,-0.04
3.0311,-1.0295,-10.2951,-0.0085,-0.0885,-0.0466
3.1412,-1.0678,-10.1754,-0.0147,-0.1127,-0.0384
3.3543,-1.1013,-10.0102,-0.0157,-0.154,-0.0288
3.4477,-1.063,-9.8545,-0.0197,-0.223,-0.024
3.553,-1.0367,-9.7827,-0.02,-0.3104,-0.0181
3.5338,-1.0894,-9.8138,-0.0237,-0.409,-0.004
3.5314,-1.1013,-9.8641,-0.0176,-0.5092,0.008
3.3662,-1.1181,-9.9216,-0.0181,-0.5742,0.0168
3.1005,-1.1037,-10.0892,-0.0152,-0.6147,0.0293
